File: files/Trevor_Composites_Flexural_ES100_1_1.csv
Results Table 1

Results Table 2

Time,Displacement,Force
(s),(mm),(kN)
"0.0000","2.5991","0.0492"
"0.2200","2.6009","0.0494"
"0.4400","2.6060","0.0499"
"0.6600","2.6101","0.0496"
"0.8800","2.6137","0.0498"
"1.1000","2.6173","0.0503"
"1.3200","2.6209","0.0503"
"1.5400","2.6248","0.0502"
"1.7600","2.6286","0.0506"
"1.9800","2.6319","0.0508"
"2.2000","2.6356","0.0510"
"2.4200","2.6394","0.0511"
"2.6400","2.6431","0.0509"
"2.8600","2.6467","0.0513"
"3.0800","2.6503","0.0516"
"3.3000","2.6539","0.0519"
"3.5200","2.6579","0.0519"
"3.7400","2.6614","0.0521"
"3.9600","2.6649","0.0522"
"4.1800","2.6688","0.0527"
"4.4000","2.6724","0.0528"
"4.6200","2.6763","0.0532"
"4.8400","2.6796","0.0528"
"5.0600","2.6832","0.0532"
"5.2800","2.6873","0.0536"
"5.5000","2.6906","0.0534"
"5.7200","2.6944","0.0539"
"5.9400","2.6979","0.0542"
"6.1600","2.7016","0.0543"
"6.3800","2.7056","0.0548"
"6.6000","2.7090","0.0548"
"6.8200","2.7126","0.0550"
"7.0400","2.7164","0.0550"
"7.2600","2.7201","0.0554"
"7.4800","2.7239","0.0557"
"7.7000","2.7273","0.0557"
"7.9200","2.7310","0.0558"
"8.1400","2.7348","0.0563"
"8.3600","2.7383","0.0560"
"8.5800","2.7420","0.0566"
"8.8000","2.7456","0.0566"
"9.0200","2.7493","0.0573"
"9.2400","2.7533","0.0571"
"9.4600","2.7567","0.0575"
"9.6800","2.7603","0.0579"
"9.9000","2.7640","0.0580"
"10.1200","2.7678","0.0578"
"10.3400","2.7716","0.0583"
"10.5600","2.7749","0.0585"
"10.7800","2.7786","0.0587"
"11.0000","2.7825","0.0592"
"11.2200","2.7860","0.0591"
"11.4400","2.7897","0.0591"
"11.6600","2.7933","0.0595"
"11.8800","2.7968","0.0598"
"12.1000","2.8009","0.0597"
"12.3200","2.8044","0.0600"
"12.5400","2.8079","0.0600"
"12.7600","2.8118","0.0603"
"12.9800","2.8154","0.0606"
"13.2000","2.8193","0.0605"
"13.4200","2.8226","0.0609"
"13.6400","2.8263","0.0614"
"13.8600","2.8303","0.0614"
"14.0800","2.8336","0.0616"
"14.3000","2.8374","0.0623"
"14.5200","2.8409","0.0619"
"14.7400","2.8446","0.0624"
"14.9600","2.8486","0.0623"
"15.1800","2.8520","0.0623"
"15.4000","2.8556","0.0629"
"15.6200","2.8593","0.0632"
"15.8400","2.8631","0.0633"
"16.0600","2.8669","0.0636"
"16.2800","2.8702","0.0641"
"16.5000","2.8740","0.0636"
"16.7200","2.8778","0.0645"
"16.9400","2.8814","0.0639"
"17.1600","2.8850","0.0645"
"17.3800","2.8886","0.0650"
"17.6000","2.8923","0.0652"
"17.8200","2.8962","0.0652"
"18.0400","2.8997","0.0651"
"18.2600","2.9032","0.0658"
"18.4800","2.9071","0.0658"
"18.7000","2.9108","0.0659"
"18.9200","2.9144","0.0666"
"19.1400","2.9179","0.0663"
"19.3600","2.9216","0.0668"
"19.5800","2.9256","0.0666"
"19.8000","2.9290","0.0668"
"20.0200","2.9326","0.0673"
"20.2400","2.9363","0.0672"
"20.4600","2.9399","0.0676"
"20.6800","2.9439","0.0679"
"20.9000","2.9472","0.0678"
"21.1200","2.9509","0.0681"
"21.3400","2.9549","0.0682"
"21.5600","2.9584","0.0688"
"21.7800","2.9621","0.0690"
"22.0000","2.9656","0.0690"
"22.2200","2.9693","0.0691"
"22.4400","2.9733","0.0693"
"22.6600","2.9766","0.0694"
"22.8800","2.9803","0.0696"
"23.1000","2.9839","0.0703"
"23.3200","2.9876","0.0704"
"23.5400","2.9916","0.0706"
"23.7600","2.9949","0.0703"
"23.9800","2.9986","0.0705"
"24.2000","3.0024","0.0711"
"24.4200","3.0062","0.0711"
"24.6400","3.0098","0.0714"
"24.8600","3.0132","0.0715"
"25.0800","3.0170","0.0718"
"25.3000","3.0209","0.0722"
"25.5200","3.0243","0.0726"
"25.7400","3.0279","0.0724"
"25.9600","3.0316","0.0728"
"26.1800","3.0353","0.0728"
"26.4000","3.0392","0.0729"
"26.6200","3.0426","0.0734"
"26.8400","3.0462","0.0733"
"27.0600","3.0501","0.0734"
"27.2800","3.0539","0.0738"
"27.5000","3.0574","0.0743"
"27.7200","3.0609","0.0742"
"27.9400","3.0646","0.0743"
"28.1600","3.0686","0.0748"
"28.3800","3.0720","0.0746"
"28.6000","3.0756","0.0747"
"28.8200","3.0793","0.0755"
"29.0400","3.0829","0.0757"
"29.2600","3.0869","0.0758"
"29.4800","3.0903","0.0759"
"29.7000","3.0939","0.0760"
"29.9200","3.0978","0.0759"
"30.1400","3.1014","0.0765"
"30.3600","3.1052","0.0766"
"30.5800","3.1086","0.0768"
"30.8000","3.1122","0.0772"
"31.0200","3.1163","0.0777"
"31.2400","3.1196","0.0775"
"31.4600","3.1233","0.0777"
"31.6800","3.1269","0.0783"
"31.9000","3.1306","0.0786"
"32.1200","3.1346","0.0787"
"32.3400","3.1379","0.0784"
"32.5600","3.1416","0.0784"
"32.7800","3.1454","0.0789"
"33.0000","3.1491","0.0789"
"33.2200","3.1528","0.0797"
"33.4400","3.1562","0.0796"
"33.6600","3.1600","0.0799"
"33.8800","3.1639","0.0799"
"34.1000","3.1673","0.0800"
"34.3200","3.1709","0.0803"
"34.5400","3.1746","0.0803"
"34.7600","3.1784","0.0807"
"34.9800","3.1821","0.0810"
"35.2000","3.1856","0.0808"
"35.4200","3.1892","0.0815"
"35.6400","3.1932","0.0815"
"35.8600","3.1968","0.0822"
"36.0800","3.2003","0.0821"
"36.3000","3.2040","0.0822"
"36.5200","3.2077","0.0826"
"36.7400","3.2116","0.0828"
"36.9600","3.2149","0.0824"
"37.1800","3.2186","0.0828"
"37.4000","3.2224","0.0835"
"37.6200","3.2259","0.0838"
"37.8400","3.2298","0.0834"
"38.0600","3.2332","0.0838"
"38.2800","3.2369","0.0841"
"38.5000","3.2410","0.0842"
"38.7200","3.2444","0.0843"
"38.9400","3.2481","0.0845"
"39.1600","3.2516","0.0850"
"39.3800","3.2554","0.0853"
"39.6000","3.2593","0.0853"
"39.8200","3.2626","0.0854"
"40.0400","3.2663","0.0855"
"40.2600","3.2700","0.0861"
"40.4800","3.2736","0.0862"
"40.7000","3.2775","0.0863"
"40.9200","3.2809","0.0863"
"41.1400","3.2846","0.0867"
"41.3600","3.2885","0.0867"
"41.5800","3.2921","0.0870"
"41.8000","3.2958","0.0873"
"42.0200","3.2993","0.0874"
"42.2400","3.3031","0.0875"
"42.4600","3.3069","0.0873"
"42.6800","3.3103","0.0881"
"42.9000","3.3139","0.0879"
"43.1200","3.3176","0.0886"
"43.3400","3.3214","0.0888"
"43.5600","3.3251","0.0887"
"43.7800","3.3286","0.0887"
"44.0000","3.3322","0.0893"
"44.2200","3.3361","0.0897"
"44.4400","3.3398","0.0893"
"44.6600","3.3434","0.0902"
"44.8800","3.3469","0.0903"
"45.1000","3.3506","0.0900"
"45.3200","3.3546","0.0907"
"45.5400","3.3580","0.0906"
"45.7600","3.3616","0.0909"
"45.9800","3.3654","0.0911"
"46.2000","3.3689","0.0915"
"46.4200","3.3728","0.0918"
"46.6400","3.3763","0.0917"
"46.8600","3.3799","0.0921"
"47.0800","3.3839","0.0920"
"47.3000","3.3874","0.0923"
"47.5200","3.3911","0.0927"
"47.7400","3.3946","0.0925"
"47.9600","3.3983","0.0932"
"48.1800","3.4023","0.0927"
"48.4000","3.4056","0.0931"
"48.6200","3.4093","0.0937"
"48.8400","3.4131","0.0938"
"49.0600","3.4167","0.0938"
"49.2800","3.4204","0.0943"
"49.5000","3.4239","0.0947"
"49.7200","3.4276","0.0948"
"49.9400","3.4316","0.0946"
"50.1600","3.4351","0.0948"
"50.3800","3.4386","0.0952"
"50.6000","3.4423","0.0953"
"50.8200","3.4461","0.0957"
"51.0400","3.4499","0.0957"
"51.2600","3.4533","0.0959"
"51.4800","3.4569","0.0960"
"51.7000","3.4608","0.0962"
"51.9200","3.4644","0.0962"
"52.1400","3.4681","0.0967"
"52.3600","3.4716","0.0968"
"52.5800","3.4752","0.0973"
"52.8000","3.4792","0.0976"
"53.0200","3.4828","0.0976"
"53.2400","3.4863","0.0977"
"53.4600","3.4901","0.0976"
"53.6800","3.4937","0.0983"
"53.9000","3.4976","0.0987"
"54.1200","3.5009","0.0986"
"54.3400","3.5046","0.0988"
"54.5600","3.5085","0.0988"
"54.7800","3.5119","0.0994"
"55.0000","3.5157","0.0994"
"55.2200","3.5193","0.0993"
"55.4400","3.5228","0.0995"
"55.6600","3.5270","0.1001"
"55.8800","3.5304","0.0998"
"56.1000","3.5340","0.1005"
"56.3200","3.5376","0.1006"
"56.5400","3.5414","0.1003"
"56.7600","3.5453","0.1012"
"56.9800","3.5486","0.1013"
"57.2000","3.5523","0.1016"
"57.4200","3.5561","0.1015"
"57.6400","3.5596","0.1020"
"57.8600","3.5634","0.1018"
"58.0800","3.5669","0.1022"
"58.3000","3.5706","0.1025"
"58.5200","3.5746","0.1027"
"58.7400","3.5781","0.1029"
"58.9600","3.5817","0.1027"
"59.1800","3.5852","0.1034"
"59.4000","3.5891","0.1031"
"59.6200","3.5929","0.1036"
"59.8400","3.5963","0.1037"
"60.0600","3.5999","0.1040"
"60.2800","3.6038","0.1038"
"60.5000","3.6074","0.1042"
"60.7200","3.6110","0.1044"
"60.9400","3.6146","0.1044"
"61.1600","3.6182","0.1047"
"61.3800","3.6223","0.1052"
"61.6000","3.6258","0.1051"
"61.8200","3.6293","0.1054"
"62.0400","3.6331","0.1055"
"62.2600","3.6367","0.1057"
"62.4800","3.6406","0.1064"
"62.7000","3.6439","0.1058"
"62.9200","3.6476","0.1062"
"63.1400","3.6516","0.1068"
"63.3600","3.6550","0.1067"
"63.5800","3.6587","0.1068"
"63.8000","3.6623","0.1074"
"64.0200","3.6659","0.1074"
"64.2400","3.6700","0.1075"
"64.4600","3.6733","0.1079"
"64.6800","3.6769","0.1082"
"64.9000","3.6807","0.1081"
"65.1200","3.6844","0.1082"
"65.3400","3.6882","0.1084"
"65.5600","3.6916","0.1091"
"65.7800","3.6953","0.1088"
"66.0000","3.6991","0.1090"
"66.2200","3.7026","0.1093"
"66.4400","3.7063","0.1097"
"66.6600","3.7099","0.1097"
"66.8800","3.7136","0.1098"
"67.1000","3.7176","0.1100"
"67.3200","3.7210","0.1104"
"67.5400","3.7246","0.1101"
"67.7600","3.7284","0.1107"
"67.9800","3.7322","0.1108"
"68.2000","3.7358","0.1115"
"68.4200","3.7392","0.1114"
"68.6400","3.7429","0.1115"
"68.8600","3.7469","0.1112"
"69.0800","3.7504","0.1116"
"69.3000","3.7540","0.1120"
"69.5200","3.7576","0.1122"
"69.7400","3.7612","0.1124"
"69.9600","3.7653","0.1127"
"70.1800","3.7686","0.1127"
"70.4000","3.7723","0.1127"
"70.6200","3.7761","0.1131"
"70.8400","3.7797","0.1129"
"71.0600","3.7836","0.1132"
"71.2800","3.7869","0.1140"
"71.5000","3.7906","0.1140"
"71.7200","3.7946","0.1143"
"71.9400","3.7979","0.1145"
"72.1600","3.8017","0.1145"
"72.3800","3.8053","0.1148"
"72.6000","3.8089","0.1149"
"72.8200","3.8129","0.1151"
"73.0400","3.8163","0.1153"
"73.2600","3.8199","0.1152"
"73.4800","3.8237","0.1156"
"73.7000","3.8274","0.1160"
"73.9200","3.8313","0.1163"
"74.1400","3.8346","0.1162"
"74.3600","3.8383","0.1163"
"74.5800","3.8421","0.1167"
"74.8000","3.8457","0.1167"
"75.0200","3.8493","0.1167"
"75.2400","3.8529","0.1172"
"75.4600","3.8566","0.1172"
"75.6800","3.8605","0.1175"
"75.9000","3.8641","0.1178"
"76.1200","3.8676","0.1177"
"76.3400","3.8714","0.1182"
"76.5600","3.8752","0.1181"
"76.7800","3.8788","0.1185"
"77.0000","3.8823","0.1188"
"77.2200","3.8859","0.1188"
"77.4400","3.8899","0.1188"
"77.6600","3.8934","0.1191"
"77.8800","3.8969","0.1191"
"78.1000","3.9007","0.1194"
"78.3200","3.9042","0.1200"
"78.5400","3.9082","0.1200"
"78.7600","3.9116","0.1199"
"78.9800","3.9152","0.1204"
"79.2000","3.9192","0.1204"
"79.4200","3.9228","0.1206"
"79.6400","3.9265","0.1213"
"79.8600","3.9299","0.1209"
"80.0800","3.9336","0.1212"
"80.3000","3.9376","0.1211"
"80.5200","3.9409","0.1215"
"80.7400","3.9447","0.1219"
"80.9600","3.9482","0.1219"
"81.1800","3.9519","0.1221"
"81.4000","3.9559","0.1225"
"81.6200","3.9593","0.1221"
"81.8400","3.9629","0.1224"
"82.0600","3.9668","0.1227"
"82.2800","3.9705","0.1235"
"82.5000","3.9741","0.1232"
"82.7200","3.9776","0.1233"
"82.9400","3.9814","0.1235"
"83.1600","3.9853","0.1239"
"83.3800","3.9886","0.1234"
"83.6000","3.9923","0.1245"
"83.8200","3.9959","0.1246"
"84.0400","3.9997","0.1242"
"84.2600","4.0036","0.1248"
"84.4800","4.0070","0.1249"
"84.7000","4.0105","0.1249"
"84.9200","4.0145","0.1251"
"85.1400","4.0181","0.1253"
"85.3600","4.0217","0.1260"
"85.5800","4.0253","0.1257"
"85.8000","4.0289","0.1258"
"86.0200","4.0329","0.1262"
"86.2400","4.0363","0.1259"
"86.4600","4.0399","0.1267"
"86.6800","4.0437","0.1269"
"86.9000","4.0473","0.1268"
"87.1200","4.0512","0.1271"
"87.3400","4.0546","0.1269"
"87.5600","4.0582","0.1275"
"87.7800","4.0622","0.1274"
"88.0000","4.0658","0.1279"
"88.2200","4.0695","0.1283"
"88.4400","4.0729","0.1279"
"88.6600","4.0766","0.1279"
"88.8800","4.0807","0.1286"
"89.1000","4.0839","0.1290"
"89.3200","4.0876","0.1289"
"89.5400","4.0912","0.1289"
"89.7600","4.0949","0.1293"
"89.9800","4.0989","0.1296"
"90.2000","4.1023","0.1295"
"90.4200","4.1059","0.1297"
"90.6400","4.1098","0.1299"
"90.8600","4.1135","0.1300"
"91.0800","4.1171","0.1303"
"91.3000","4.1206","0.1306"
"91.5200","4.1244","0.1306"
"91.7400","4.1283","0.1308"
"91.9600","4.1317","0.1308"
"92.1800","4.1353","0.1313"
"92.4000","4.1389","0.1314"
"92.6200","4.1427","0.1314"
"92.8400","4.1464","0.1315"
"93.0600","4.1499","0.1317"
"93.2800","4.1535","0.1323"
"93.5000","4.1575","0.1322"
"93.7200","4.1611","0.1326"
"93.9400","4.1647","0.1330"
"94.1600","4.1683","0.1328"
"94.3800","4.1719","0.1330"
"94.6000","4.1759","0.1329"
"94.8200","4.1793","0.1332"
"95.0400","4.1829","0.1333"
"95.2600","4.1868","0.1335"
"95.4800","4.1903","0.1339"
"95.7000","4.1942","0.1342"
"95.9200","4.1976","0.1341"
"96.1400","4.2012","0.1345"
"96.3600","4.2053","0.1345"
"96.5800","4.2088","0.1345"
"96.8000","4.2124","0.1352"
"97.0200","4.2159","0.1352"
"97.2400","4.2198","0.1353"
"97.4600","4.2236","0.1355"
"97.6800","4.2269","0.1359"
"97.9000","4.2306","0.1357"
"98.1200","4.2344","0.1361"
"98.3400","4.2380","0.1364"
"98.5600","4.2418","0.1366"
"98.7800","4.2452","0.1364"
"99.0000","4.2489","0.1368"
"99.2200","4.2529","0.1367"
"99.4400","4.2564","0.1368"
"99.6600","4.2600","0.1372"
"99.8800","4.2636","0.1375"
"100.1000","4.2674","0.1379"
"100.3200","4.2713","0.1378"
"100.5400","4.2746","0.1379"
"100.7600","4.2783","0.1378"
"100.9800","4.2820","0.1385"
"101.2000","4.2857","0.1384"
"101.4200","4.2894","0.1387"
"101.6400","4.2929","0.1387"
"101.8600","4.2965","0.1389"
"102.0800","4.3006","0.1389"
"102.3000","4.3041","0.1395"
"102.5200","4.3077","0.1396"
"102.7400","4.3113","0.1399"
"102.9600","4.3150","0.1398"
"103.1800","4.3190","0.1400"
"103.4000","4.3223","0.1397"
"103.6200","4.3259","0.1401"
"103.8400","4.3298","0.1407"
"104.0600","4.3333","0.1412"
"104.2800","4.3371","0.1411"
"104.5000","4.3406","0.1406"
"104.7200","4.3442","0.1415"
"104.9400","4.3482","0.1416"
"105.1600","4.3517","0.1413"
"105.3800","4.3554","0.1419"
"105.6000","4.3589","0.1419"
"105.8200","4.3627","0.1424"
"106.0400","4.3667","0.1424"
"106.2600","4.3699","0.1423"
"106.4800","4.3736","0.1423"
"106.7000","4.3774","0.1428"
"106.9200","4.3810","0.1429"
"107.1400","4.3847","0.1434"
"107.3600","4.3883","0.1433"
"107.5800","4.3919","0.1436"
"107.8000","4.3959","0.1436"
"108.0200","4.3994","0.1437"
"108.2400","4.4030","0.1442"
"108.4600","4.4066","0.1441"
"108.6800","4.4104","0.1445"
"108.9000","4.4142","0.1443"
"109.1200","4.4176","0.1444"
"109.3400","4.4212","0.1449"
"109.5600","4.4251","0.1448"
"109.7800","4.4287","0.1449"
"110.0000","4.4324","0.1455"
"110.2200","4.4359","0.1454"
"110.4400","4.4396","0.1458"
"110.6600","4.4436","0.1459"
"110.8800","4.4471","0.1461"
"111.1000","4.4506","0.1461"
"111.3200","4.4544","0.1461"
"111.5400","4.4581","0.1468"
"111.7600","4.4619","0.1467"
"111.9800","4.4653","0.1468"
"112.2000","4.4689","0.1470"
"112.4200","4.4729","0.1474"
"112.6400","4.4763","0.1475"
"112.8600","4.4801","0.1476"
"113.0800","4.4836","0.1478"
"113.3000","4.4872","0.1479"
"113.5200","4.4914","0.1483"
"113.7400","4.4947","0.1482"
"113.9600","4.4983","0.1484"
"114.1800","4.5020","0.1486"
"114.4000","4.5058","0.1484"
"114.6200","4.5096","0.1493"
"114.8400","4.5129","0.1493"
"115.0600","4.5166","0.1492"
"115.2800","4.5204","0.1494"
"115.5000","4.5240","0.1496"
"115.7200","4.5277","0.1501"
"115.9400","4.5312","0.1497"
"116.1600","4.5349","0.1502"
"116.3800","4.5389","0.1505"
"116.6000","4.5424","0.1503"
"116.8200","4.5459","0.1501"
"117.0400","4.5496","0.1507"
"117.2600","4.5534","0.1509"
"117.4800","4.5573","0.1510"
"117.7000","4.5606","0.1513"
"117.9200","4.5642","0.1512"
"118.1400","4.5681","0.1518"
"118.3600","4.5718","0.1513"
"118.5800","4.5754","0.1519"
"118.8000","4.5789","0.1518"
"119.0200","4.5825","0.1521"
"119.2400","4.5866","0.1527"
"119.4600","4.5901","0.1527"
"119.6800","4.5936","0.1525"
"119.9000","4.5974","0.1531"
"120.1200","4.6010","0.1534"
"120.3400","4.6049","0.1533"
"120.5600","4.6083","0.1531"
"120.7800","4.6119","0.1539"
"121.0000","4.6159","0.1534"
"121.2200","4.6193","0.1541"
"121.4400","4.6231","0.1542"
"121.6600","4.6266","0.1544"
"121.8800","4.6302","0.1545"
"122.1000","4.6343","0.1547"
"122.3200","4.6377","0.1546"
"122.5400","4.6413","0.1548"
"122.7600","4.6450","0.1552"
"122.9800","4.6488","0.1551"
"123.2000","4.6526","0.1559"
"123.4200","4.6559","0.1556"
"123.6400","4.6596","0.1556"
"123.8600","4.6635","0.1558"
"124.0800","4.6670","0.1559"
"124.3000","4.6707","0.1564"
"124.5200","4.6743","0.1566"
"124.7400","4.6780","0.1566"
"124.9600","4.6819","0.1564"
"125.1800","4.6854","0.1568"
"125.4000","4.6889","0.1570"
"125.6200","4.6927","0.1575"
"125.8400","4.6965","0.1574"
"126.0600","4.7001","0.1575"
"126.2800","4.7036","0.1577"
"126.5000","4.7072","0.1577"
"126.7200","4.7112","0.1577"
"126.9400","4.7147","0.1579"
"127.1600","4.7183","0.1581"
"127.3800","4.7220","0.1583"
"127.6000","4.7256","0.1585"
"127.8200","4.7296","0.1589"
"128.0400","4.7329","0.1587"
"128.2600","4.7366","0.1588"
"128.4800","4.7406","0.1590"
"128.7000","4.7441","0.1592"
"128.9200","4.7479","0.1594"
"129.1400","4.7513","0.1598"
"129.3600","4.7549","0.1598"
"129.5800","4.7590","0.1598"
"129.8000","4.7622","0.1604"
"130.0200","4.7660","0.1603"
"130.2400","4.7696","0.1606"
"130.4600","4.7733","0.1608"
"130.6800","4.7773","0.1611"
"130.9000","4.7806","0.1608"
"131.1200","4.7843","0.1612"
"131.3400","4.7881","0.1613"
"131.5600","4.7918","0.1613"
"131.7800","4.7955","0.1619"
"132.0000","4.7989","0.1618"
"132.2200","4.8027","0.1619"
"132.4400","4.8065","0.1618"
"132.6600","4.8100","0.1621"
"132.8800","4.8137","0.1625"
"133.1000","4.8172","0.1625"
"133.3200","4.8209","0.1627"
"133.5400","4.8249","0.1629"
"133.7600","4.8284","0.1629"
"133.9800","4.8319","0.1630"
"134.2000","4.8357","0.1632"
"134.4200","4.8395","0.1633"
"134.6400","4.8431","0.1635"
"134.8600","4.8466","0.1635"
"135.0800","4.8502","0.1639"
"135.3000","4.8542","0.1641"
"135.5200","4.8577","0.1645"
"135.7400","4.8612","0.1645"
"135.9600","4.8650","0.1645"
"136.1800","4.8686","0.1650"
"136.4000","4.8726","0.1650"
"136.6200","4.8760","0.1652"
"136.8400","4.8796","0.1648"
"137.0600","4.8835","0.1656"
"137.2800","4.8871","0.1658"
"137.5000","4.8908","0.1660"
"137.7200","4.8942","0.1658"
"137.9400","4.8979","0.1661"
"138.1600","4.9020","0.1662"
"138.3800","4.9053","0.1662"
"138.6000","4.9090","0.1660"
"138.8200","4.9126","0.1669"
"139.0400","4.9163","0.1668"
"139.2600","4.9203","0.1673"
"139.4800","4.9236","0.1667"
"139.7000","4.9272","0.1670"
"139.9200","4.9311","0.1673"
"140.1400","4.9348","0.1675"
"140.3600","4.9384","0.1679"
"140.5800","4.9419","0.1677"
"140.8000","4.9458","0.1680"
"141.0200","4.9496","0.1680"
"141.2400","4.9530","0.1681"
"141.4600","4.9566","0.1684"
"141.6800","4.9603","0.1687"
"141.9000","4.9641","0.1687"
"142.1200","4.9678","0.1689"
"142.3400","4.9713","0.1687"
"142.5600","4.9748","0.1691"
"142.7800","4.9789","0.1694"
"143.0000","4.9825","0.1695"
"143.2200","4.9860","0.1701"
"143.4400","4.9896","0.1697"
"143.6600","4.9933","0.1700"
"143.8800","4.9972","0.1702"
"144.1000","5.0006","0.1699"
"144.3200","5.0043","0.1704"
"144.5400","5.0081","0.1706"
"144.7600","5.0116","0.1712"
"144.9800","5.0156","0.1711"
"145.2000","5.0189","0.1708"
"145.4200","5.0225","0.1707"
"145.6400","5.0266","0.1711"
"145.8600","5.0301","0.1712"
"146.0800","5.0338","0.1717"
"146.3000","5.0373","0.1715"
"146.5200","5.0410","0.1720"
"146.7400","5.0450","0.1719"
"146.9600","5.0483","0.1724"
"147.1800","5.0519","0.1724"
"147.4000","5.0556","0.1728"
"147.6200","5.0593","0.1724"
"147.8400","5.0633","0.1728"
"148.0600","5.0666","0.1727"
"148.2800","5.0703","0.1730"
"148.5000","5.0741","0.1731"
"148.7200","5.0778","0.1732"
"148.9400","5.0814","0.1734"
"149.1600","5.0849","0.1738"
"149.3800","5.0887","0.1737"
"149.6000","5.0926","0.1741"
"149.8200","5.0960","0.1739"
"150.0400","5.0996","0.1743"
"150.2600","5.1033","0.1744"
"150.4800","5.1070","0.1744"
"150.7000","5.1108","0.1747"
"150.9200","5.1143","0.1753"
"151.1400","5.1179","0.1748"
"151.3600","5.1218","0.1751"
"151.5800","5.1255","0.1754"
"151.8000","5.1290","0.1753"
"152.0200","5.1326","0.1756"
"152.2400","5.1363","0.1756"
"152.4600","5.1402","0.1759"
"152.6800","5.1437","0.1756"
"152.9000","5.1473","0.1759"
"153.1200","5.1511","0.1761"
"153.3400","5.1546","0.1765"
"153.5600","5.1585","0.1769"
"153.7800","5.1619","0.1767"
"154.0000","5.1656","0.1769"
"154.2200","5.1696","0.1771"
"154.4400","5.1730","0.1770"
"154.6600","5.1767","0.1775"
"154.8800","5.1803","0.1776"
"155.1000","5.1840","0.1776"
"155.3200","5.1879","0.1777"
"155.5400","5.1913","0.1778"
"155.7600","5.1949","0.1779"
"155.9800","5.1987","0.1779"
"156.2000","5.2024","0.1785"
"156.4200","5.2061","0.1788"
"156.6400","5.2096","0.1785"
"156.8600","5.2133","0.1786"
"157.0800","5.2172","0.1790"
"157.3000","5.2208","0.1792"
"157.5200","5.2243","0.1790"
"157.7400","5.2280","0.1790"
"157.9600","5.2318","0.1796"
"158.1800","5.2356","0.1795"
"158.4000","5.2389","0.1797"
"158.6200","5.2426","0.1798"
"158.8400","5.2464","0.1802"
"159.0600","5.2501","0.1799"
"159.2800","5.2537","0.1805"
"159.5000","5.2573","0.1804"
"159.7200","5.2608","0.1805"
"159.9400","5.2649","0.1806"
"160.1600","5.2684","0.1808"
"160.3800","5.2720","0.1813"
"160.6000","5.2757","0.1815"
"160.8200","5.2794","0.1814"
"161.0400","5.2833","0.1817"
"161.2600","5.2866","0.1812"
"161.4800","5.2903","0.1818"
"161.7000","5.2941","0.1817"
"161.9200","5.2976","0.1822"
"162.1400","5.3014","0.1822"
"162.3600","5.3049","0.1822"
"162.5800","5.3085","0.1822"
"162.8000","5.3126","0.1826"
"163.0200","5.3161","0.1823"
"163.2400","5.3197","0.1827"
"163.4600","5.3233","0.1831"
"163.6800","5.3270","0.1831"
"163.9000","5.3310","0.1830"
"164.1200","5.3342","0.1834"
"164.3400","5.3379","0.1830"
"164.5600","5.3418","0.1836"
"164.7800","5.3453","0.1840"
"165.0000","5.3491","0.1841"
"165.2200","5.3526","0.1841"
"165.4400","5.3563","0.1841"
"165.6600","5.3602","0.1841"
"165.8800","5.3638","0.1846"
"166.1000","5.3673","0.1849"
"166.3200","5.3709","0.1850"
"166.5400","5.3748","0.1846"
"166.7600","5.3786","0.1854"
"166.9800","5.3819","0.1847"
"167.2000","5.3856","0.1853"
"167.4200","5.3894","0.1855"
"167.6400","5.3931","0.1856"
"167.8600","5.3967","0.1858"
"168.0800","5.4003","0.1858"
"168.3000","5.4039","0.1859"
"168.5200","5.4079","0.1865"
"168.7400","5.4114","0.1862"
"168.9600","5.4149","0.1864"
"169.1800","5.4188","0.1869"
"169.4000","5.4224","0.1869"
"169.6200","5.4262","0.1867"
"169.8400","5.4296","0.1867"
"170.0600","5.4333","0.1872"
"170.2800","5.4373","0.1873"
"170.5000","5.4406","0.1878"
"170.7200","5.4444","0.1877"
"170.9400","5.4479","0.1875"
"171.1600","5.4516","0.1878"
"171.3800","5.4557","0.1880"
"171.6000","5.4590","0.1878"
"171.8200","5.4626","0.1882"
"172.0400","5.4664","0.1883"
"172.2600","5.4701","0.1882"
"172.4800","5.4739","0.1890"
"172.7000","5.4773","0.1887"
"172.9200","5.4810","0.1886"
"173.1400","5.4847","0.1889"
"173.3600","5.4883","0.1889"
"173.5800","5.4920","0.1894"
"173.8000","5.4956","0.1895"
"174.0200","5.4993","0.1896"
"174.2400","5.5033","0.1896"
"174.4600","5.5068","0.1902"
"174.6800","5.5103","0.1901"
"174.9000","5.5140","0.1901"
"175.1200","5.5179","0.1903"
"175.3400","5.5215","0.1906"
"175.5600","5.5249","0.1904"
"175.7800","5.5286","0.1903"
"176.0000","5.5324","0.1908"
"176.2200","5.5360","0.1907"
"176.4400","5.5397","0.1910"
"176.6600","5.5433","0.1913"
"176.8800","5.5468","0.1912"
"177.1000","5.5509","0.1916"
"177.3200","5.5544","0.1914"
"177.5400","5.5579","0.1914"
"177.7600","5.5618","0.1917"
"177.9800","5.5654","0.1922"
"178.2000","5.5693","0.1922"
"178.4200","5.5726","0.1922"
"178.6400","5.5763","0.1921"
"178.8600","5.5803","0.1924"
"179.0800","5.5836","0.1925"
"179.3000","5.5874","0.1929"
"179.5200","5.5909","0.1928"
"179.7400","5.5946","0.1933"
"179.9600","5.5986","0.1931"
"180.1800","5.6020","0.1934"
"180.4000","5.6056","0.1933"
"180.6200","5.6093","0.1935"
"180.8400","5.6131","0.1936"
"181.0600","5.6169","0.1941"
"181.2800","5.6202","0.1938"
"181.5000","5.6239","0.1941"
"181.7200","5.6278","0.1944"
"181.9400","5.6314","0.1941"
"182.1600","5.6350","0.1943"
"182.3800","5.6386","0.1944"
"182.6000","5.6423","0.1948"
"182.8200","5.6462","0.1950"
"183.0400","5.6497","0.1949"
"183.2600","5.6532","0.1951"
"183.4800","5.6571","0.1954"
"183.7000","5.6608","0.1951"
"183.9200","5.6644","0.1959"
"184.1400","5.6679","0.1955"
"184.3600","5.6716","0.1960"
"184.5800","5.6756","0.1960"
"184.8000","5.6790","0.1957"
"185.0200","5.6826","0.1966"
"185.2400","5.6864","0.1961"
"185.4600","5.6899","0.1964"
"185.6800","5.6939","0.1964"
"185.9000","5.6973","0.1968"
"186.1200","5.7009","0.1969"
"186.3400","5.7049","0.1966"
"186.5600","5.7084","0.1973"
"186.7800","5.7121","0.1976"
"187.0000","5.7156","0.1975"
"187.2200","5.7193","0.1973"
"187.4400","5.7233","0.1977"
"187.6600","5.7266","0.1977"
"187.8800","5.7303","0.1981"
"188.1000","5.7339","0.1979"
"188.3200","5.7376","0.1979"
"188.5400","5.7416","0.1980"
"188.7600","5.7449","0.1983"
"188.9800","5.7486","0.1984"
"189.2000","5.7524","0.1987"
"189.4200","5.7561","0.1986"
"189.6400","5.7597","0.1989"
"189.8600","5.7632","0.1988"
"190.0800","5.7671","0.1990"
"190.3000","5.7709","0.1991"
"190.5200","5.7743","0.1995"
"190.7400","5.7779","0.1991"
"190.9600","5.7816","0.1996"
"191.1800","5.7853","0.2000"
"191.4000","5.7892","0.2000"
"191.6200","5.7927","0.1999"
"191.8400","5.7962","0.1998"
"192.0600","5.8001","0.2001"
"192.2800","5.8039","0.2005"
"192.5000","5.8074","0.2007"
"192.7200","5.8109","0.2006"
"192.9400","5.8146","0.2009"
"193.1600","5.8186","0.2005"
"193.3800","5.8220","0.2008"
"193.6000","5.8256","0.2010"
"193.8200","5.8293","0.2013"
"194.0400","5.8329","0.2012"
"194.2600","5.8369","0.2013"
"194.4800","5.8403","0.2013"
"194.7000","5.8439","0.2017"
"194.9200","5.8478","0.2019"
"195.1400","5.8514","0.2018"
"195.3600","5.8551","0.2021"
"195.5800","5.8586","0.2020"
"195.8000","5.8622","0.2027"
"196.0200","5.8663","0.2025"
"196.2400","5.8696","0.2024"
"196.4600","5.8733","0.2031"
"196.6800","5.8769","0.2030"
"196.9000","5.8806","0.2030"
"197.1200","5.8846","0.2033"
"197.3400","5.8879","0.2028"
"197.5600","5.8916","0.2032"
"197.7800","5.8954","0.2036"
"198.0000","5.8991","0.2035"
"198.2200","5.9028","0.2040"
"198.4400","5.9062","0.2038"
"198.6600","5.9100","0.2039"
"198.8800","5.9139","0.2040"
"199.1000","5.9173","0.2040"
"199.3200","5.9209","0.2041"
"199.5400","5.9246","0.2042"
"199.7600","5.9284","0.2048"
"199.9800","5.9321","0.2047"
"200.2000","5.9356","0.2046"
"200.4200","5.9392","0.2048"
"200.6400","5.9432","0.2048"
"200.8600","5.9468","0.2052"
"201.0800","5.9504","0.2051"
"201.3000","5.9540","0.2054"
"201.5200","5.9576","0.2055"
"201.7400","5.9616","0.2054"
"201.9600","5.9649","0.2055"
"202.1800","5.9686","0.2055"
"202.4000","5.9724","0.2063"
"202.6200","5.9759","0.2064"
"202.8400","5.9798","0.2065"
"203.0600","5.9832","0.2059"
"203.2800","5.9869","0.2066"
"203.5000","5.9910","0.2067"
"203.7200","5.9944","0.2065"
"203.9400","5.9981","0.2067"
"204.1600","6.0016","0.2072"
"204.3800","6.0054","0.2071"
"204.6000","6.0094","0.2073"
"204.8200","6.0126","0.2073"
"205.0400","6.0163","0.2075"
"205.2600","6.0199","0.2077"
"205.4800","6.0236","0.2076"
"205.7000","6.0275","0.2078"
"205.9200","6.0309","0.2081"
"206.1400","6.0346","0.2079"
"206.3600","6.0385","0.2084"
"206.5800","6.0421","0.2084"
"206.8000","6.0458","0.2083"
"207.0200","6.0493","0.2086"
"207.2400","6.0531","0.2085"
"207.4600","6.0569","0.2082"
"207.6800","6.0603","0.2089"
"207.9000","6.0639","0.2088"
"208.1200","6.0676","0.2090"
"208.3400","6.0714","0.2090"
"208.5600","6.0751","0.2095"
"208.7800","6.0786","0.2093"
"209.0000","6.0822","0.2093"
"209.2200","6.0861","0.2095"
"209.4400","6.0898","0.2097"
"209.6600","6.0934","0.2096"
"209.8800","6.0969","0.2103"
"210.1000","6.1006","0.2102"
"210.3200","6.1046","0.2106"
"210.5400","6.1080","0.2100"
"210.7600","6.1116","0.2104"
"210.9800","6.1154","0.2106"
"211.2000","6.1189","0.2109"
"211.4200","6.1228","0.2112"
"211.6400","6.1263","0.2108"
"211.8600","6.1298","0.2111"
"212.0800","6.1339","0.2110"
"212.3000","6.1374","0.2109"
"212.5200","6.1411","0.2113"
"212.7400","6.1446","0.2114"
"212.9600","6.1483","0.2116"
"213.1800","6.1523","0.2119"
"213.4000","6.1556","0.2117"
"213.6200","6.1593","0.2117"
"213.8400","6.1631","0.2119"
"214.0600","6.1666","0.2121"
"214.2800","6.1704","0.2124"
"214.5000","6.1739","0.2125"
"214.7200","6.1776","0.2127"
"214.9400","6.1816","0.2126"
"215.1600","6.1851","0.2128"
"215.3800","6.1886","0.2128"
"215.6000","6.1923","0.2130"
"215.8200","6.1961","0.2129"
"216.0400","6.1999","0.2132"
"216.2600","6.2032","0.2131"
"216.4800","6.2069","0.2135"
"216.7000","6.2108","0.2135"
"216.9200","6.2144","0.2135"
"217.1400","6.2181","0.2139"
"217.3600","6.2216","0.2138"
"217.5800","6.2252","0.2139"
"217.8000","6.2292","0.2140"
"218.0200","6.2327","0.2142"
"218.2400","6.2362","0.2145"
"218.4600","6.2401","0.2143"
"218.6800","6.2437","0.2144"
"218.9000","6.2476","0.2146"
"219.1200","6.2509","0.2146"
"219.3400","6.2546","0.2146"
"219.5600","6.2585","0.2150"
"219.7800","6.2619","0.2150"
"220.0000","6.2657","0.2153"
"220.2200","6.2692","0.2150"
"220.4400","6.2729","0.2148"
"220.6600","6.2770","0.2153"
"220.8800","6.2804","0.2154"
"221.1000","6.2840","0.2154"
"221.3200","6.2876","0.2157"
"221.5400","6.2914","0.2160"
"221.7600","6.2953","0.2161"
"221.9800","6.2986","0.2162"
"222.2000","6.3023","0.2159"
"222.4200","6.3061","0.2164"
"222.6400","6.3096","0.2165"
"222.8600","6.3134","0.2163"
"223.0800","6.3169","0.2166"
"223.3000","6.3206","0.2167"
"223.5200","6.3246","0.2164"
"223.7400","6.3281","0.2168"
"223.9600","6.3317","0.2169"
"224.1800","6.3352","0.2173"
"224.4000","6.3391","0.2169"
"224.6200","6.3429","0.2178"
"224.8400","6.3463","0.2174"
"225.0600","6.3499","0.2176"
"225.2800","6.3538","0.2179"
"225.5000","6.3574","0.2178"
"225.7200","6.3610","0.2179"
"225.9400","6.3646","0.2175"
"226.1600","6.3682","0.2183"
"226.3800","6.3722","0.2184"
"226.6000","6.3758","0.2186"
"226.8200","6.3793","0.2186"
"227.0400","6.3831","0.2187"
"227.2600","6.3867","0.2187"
"227.4800","6.3906","0.2185"
"227.7000","6.3939","0.2187"
"227.9200","6.3976","0.2188"
"228.1400","6.4016","0.2190"
"228.3600","6.4050","0.2190"
"228.5800","6.4088","0.2194"
"228.8000","6.4122","0.2193"
"229.0200","6.4159","0.2199"
"229.2400","6.4200","0.2196"
"229.4600","6.4233","0.2197"
"229.6800","6.4269","0.2197"
"229.9000","6.4307","0.2201"
"230.1200","6.4344","0.2202"
"230.3400","6.4382","0.2204"
"230.5600","6.4416","0.2203"
"230.7800","6.4453","0.2204"
"231.0000","6.4491","0.2205"
"231.2200","6.4527","0.2203"
"231.4400","6.4564","0.2210"
"231.6600","6.4599","0.2207"
"231.8800","6.4636","0.2210"
"232.1000","6.4676","0.2211"
"232.3200","6.4710","0.2211"
"232.5400","6.4746","0.2208"
"232.7600","6.4784","0.2214"
"232.9800","6.4822","0.2212"
"233.2000","6.4858","0.2215"
"233.4200","6.4893","0.2218"
"233.6400","6.4929","0.2216"
"233.8600","6.4969","0.2217"
"234.0800","6.5004","0.2217"
"234.3000","6.5040","0.2225"
"234.5200","6.5076","0.2223"
"234.7400","6.5112","0.2224"
"234.9600","6.5153","0.2222"
"235.1800","6.5186","0.2226"
"235.4000","6.5223","0.2222"
"235.6200","6.5261","0.2229"
"235.8400","6.5297","0.2228"
"236.0600","6.5336","0.2231"
"236.2800","6.5369","0.2230"
"236.5000","6.5406","0.2228"
"236.7200","6.5446","0.2234"
"236.9400","6.5479","0.2235"
"237.1600","6.5517","0.2236"
"237.3800","6.5552","0.2238"
"237.6000","6.5589","0.2237"
"237.8200","6.5630","0.2237"
"238.0400","6.5663","0.2240"
"238.2600","6.5699","0.2237"
"238.4800","6.5737","0.2241"
"238.7000","6.5774","0.2242"
"238.9200","6.5812","0.2245"
"239.1400","6.5846","0.2246"
"239.3600","6.5883","0.2243"
"239.5800","6.5921","0.2249"
"239.8000","6.5957","0.2245"
"240.0200","6.5993","0.2246"
"240.2400","6.6029","0.2248"
"240.4600","6.6066","0.2249"
"240.6800","6.6105","0.2254"
"240.9000","6.6141","0.2254"
"241.1200","6.6176","0.2250"
"241.3400","6.6214","0.2256"
"241.5600","6.6252","0.2258"
"241.7800","6.6288","0.2255"
"242.0000","6.6323","0.2258"
"242.2200","6.6359","0.2259"
"242.4400","6.6399","0.2255"
"242.6600","6.6434","0.2260"
"242.8800","6.6469","0.2263"
"243.1000","6.6507","0.2262"
"243.3200","6.6543","0.2263"
"243.5400","6.6582","0.2266"
"243.7600","6.6616","0.2265"
"243.9800","6.6652","0.2264"
"244.2000","6.6692","0.2267"
"244.4200","6.6727","0.2265"
"244.6400","6.6764","0.2270"
"244.8600","6.6799","0.2266"
"245.0800","6.6836","0.2272"
"245.3000","6.6877","0.2274"
"245.5200","6.6909","0.2273"
"245.7400","6.6946","0.2273"
"245.9600","6.6982","0.2272"
"246.1800","6.7020","0.2277"
"246.4000","6.7059","0.2278"
"246.6200","6.7092","0.2277"
"246.8400","6.7129","0.2278"
"247.0600","6.7168","0.2278"
"247.2800","6.7205","0.2281"
"247.5000","6.7241","0.2284"
"247.7200","6.7276","0.2281"
"247.9400","6.7314","0.2283"
"248.1600","6.7352","0.2283"
"248.3800","6.7386","0.2282"
"248.6000","6.7422","0.2287"
"248.8200","6.7459","0.2287"
"249.0400","6.7497","0.2287"
"249.2600","6.7536","0.2288"
"249.4800","6.7569","0.2288"
"249.7000","6.7605","0.2289"
"249.9200","6.7645","0.2290"
"250.1400","6.7682","0.2291"
"250.3600","6.7717","0.2293"
"250.5800","6.7752","0.2293"
"250.8000","6.7789","0.2298"
"251.0200","6.7829","0.2298"
"251.2400","6.7863","0.2297"
"251.4600","6.7899","0.2299"
"251.6800","6.7936","0.2301"
"251.9000","6.7973","0.2297"
"252.1200","6.8013","0.2305"
"252.3400","6.8046","0.2301"
"252.5600","6.8082","0.2302"
"252.7800","6.8122","0.2302"
"253.0000","6.8157","0.2302"
"253.2200","6.8195","0.2309"
"253.4400","6.8229","0.2309"
"253.6600","6.8266","0.2309"
"253.8800","6.8307","0.2307"
"254.1000","6.8339","0.2308"
"254.3200","6.8376","0.2310"
"254.5400","6.8412","0.2309"
"254.7600","6.8449","0.2315"
"254.9800","6.8489","0.2316"
"255.2000","6.8523","0.2312"
"255.4200","6.8559","0.2316"
"255.6400","6.8597","0.2318"
"255.8600","6.8635","0.2317"
"256.0800","6.8671","0.2320"
"256.3000","6.8706","0.2319"
"256.5200","6.8744","0.2325"
"256.7400","6.8783","0.2321"
"256.9600","6.8817","0.2320"
"257.1800","6.8852","0.2324"
"257.4000","6.8889","0.2327"
"257.6200","6.8927","0.2327"
"257.8400","6.8965","0.2326"
"258.0600","6.9000","0.2324"
"258.2800","6.9035","0.2329"
"258.5000","6.9075","0.2330"
"258.7200","6.9111","0.2329"
"258.9400","6.9147","0.2333"
"259.1600","6.9183","0.2333"
"259.3800","6.9219","0.2335"
"259.6000","6.9259","0.2333"
"259.8200","6.9293","0.2334"
"260.0400","6.9329","0.2334"
"260.2600","6.9368","0.2339"
"260.4800","6.9403","0.2340"
"260.7000","6.9442","0.2342"
"260.9200","6.9476","0.2338"
"261.1400","6.9512","0.2342"
"261.3600","6.9553","0.2342"
"261.5800","6.9587","0.2341"
"261.8000","6.9624","0.2344"
"262.0200","6.9659","0.2345"
"262.2400","6.9697","0.2347"
"262.4600","6.9736","0.2347"
"262.6800","6.9769","0.2347"
"262.9000","6.9806","0.2346"
"263.1200","6.9843","0.2347"
"263.3400","6.9880","0.2351"
"263.5600","6.9918","0.2349"
"263.7800","6.9952","0.2348"
"264.0000","6.9989","0.2351"
"264.2200","7.0029","0.2350"
"264.4400","7.0064","0.2355"
"264.6600","7.0100","0.2354"
"264.8800","7.0136","0.2357"
"265.1000","7.0174","0.2358"
"265.3200","7.0213","0.2357"
"265.5400","7.0246","0.2360"
"265.7600","7.0282","0.2362"
"265.9800","7.0320","0.2359"
"266.2000","7.0357","0.2359"
"266.4200","7.0394","0.2364"
"266.6400","7.0429","0.2360"
"266.8600","7.0465","0.2362"
"267.0800","7.0505","0.2365"
"267.3000","7.0541","0.2366"
"267.5200","7.0577","0.2367"
"267.7400","7.0613","0.2368"
"267.9600","7.0650","0.2367"
"268.1800","7.0690","0.2369"
"268.4000","7.0723","0.2365"
"268.6200","7.0759","0.2371"
"268.8400","7.0798","0.2371"
"269.0600","7.0833","0.2374"
"269.2800","7.0871","0.2374"
"269.5000","7.0906","0.2372"
"269.7200","7.0942","0.2375"
"269.9400","7.0982","0.2377"
"270.1600","7.1017","0.2372"
"270.3800","7.1054","0.2378"
"270.6000","7.1089","0.2381"
"270.8200","7.1127","0.2381"
"271.0400","7.1167","0.2381"
"271.2600","7.1199","0.2380"
"271.4800","7.1236","0.2383"
"271.7000","7.1274","0.2383"
"271.9200","7.1310","0.2385"
"272.1400","7.1347","0.2386"
"272.3600","7.1383","0.2383"
"272.5800","7.1419","0.2388"
"272.8000","7.1459","0.2388"
"273.0200","7.1494","0.2387"
"273.2400","7.1529","0.2387"
"273.4600","7.1566","0.2389"
"273.6800","7.1604","0.2391"
"273.9000","7.1642","0.2393"
"274.1200","7.1676","0.2391"
"274.3400","7.1712","0.2390"
"274.5600","7.1751","0.2393"
"274.7800","7.1788","0.2391"
"275.0000","7.1824","0.2397"
"275.2200","7.1859","0.2397"
"275.4400","7.1895","0.2396"
"275.6600","7.1936","0.2399"
"275.8800","7.1971","0.2399"
"276.1000","7.2006","0.2396"
"276.3200","7.2044","0.2400"
"276.5400","7.2081","0.2402"
"276.7600","7.2119","0.2402"
"276.9800","7.2153","0.2400"
"277.2000","7.2189","0.2406"
"277.4200","7.2229","0.2402"
"277.6400","7.2263","0.2406"
"277.8600","7.2301","0.2409"
"278.0800","7.2336","0.2407"
"278.3000","7.2372","0.2407"
"278.5200","7.2413","0.2409"
"278.7400","7.2447","0.2408"
"278.9600","7.2483","0.2409"
"279.1800","7.2520","0.2410"
"279.4000","7.2558","0.2412"
"279.6200","7.2596","0.2416"
"279.8400","7.2629","0.2413"
"280.0600","7.2666","0.2415"
"280.2800","7.2704","0.2413"
"280.5000","7.2740","0.2415"
"280.7200","7.2777","0.2417"
"280.9400","7.2812","0.2420"
"281.1600","7.2849","0.2420"
"281.3800","7.2889","0.2418"
"281.6000","7.2924","0.2420"
"281.8200","7.2959","0.2422"
"282.0400","7.2996","0.2422"
"282.2600","7.3035","0.2422"
"282.4800","7.3073","0.2425"
"282.7000","7.3106","0.2419"
"282.9200","7.3142","0.2422"
"283.1400","7.3181","0.2427"
"283.3600","7.3218","0.2426"
"283.5800","7.3254","0.2426"
"283.8000","7.3289","0.2426"
"284.0200","7.3325","0.2430"
"284.2400","7.3366","0.2429"
"284.4600","7.3401","0.2433"
"284.6800","7.3436","0.2432"
"284.9000","7.3474","0.2428"
"285.1200","7.3510","0.2434"
"285.3400","7.3549","0.2438"
"285.5600","7.3582","0.2434"
"285.7800","7.3619","0.2437"
"286.0000","7.3659","0.2434"
"286.2200","7.3693","0.2437"
"286.4400","7.3731","0.2437"
"286.6600","7.3766","0.2438"
"286.8800","7.3802","0.2441"
"287.1000","7.3843","0.2441"
"287.3200","7.3877","0.2441"
"287.5400","7.3913","0.2440"
"287.7600","7.3950","0.2442"
"287.9800","7.3988","0.2444"
"288.2000","7.4025","0.2445"
"288.4200","7.4059","0.2443"
"288.6400","7.4096","0.2445"
"288.8600","7.4134","0.2448"
"289.0800","7.4170","0.2447"
"289.3000","7.4207","0.2449"
"289.5200","7.4243","0.2450"
"289.7400","7.4280","0.2446"
"289.9600","7.4319","0.2450"
"290.1800","7.4354","0.2451"
"290.4000","7.4389","0.2451"
"290.6200","7.4427","0.2451"
"290.8400","7.4465","0.2455"
"291.0600","7.4501","0.2456"
"291.2800","7.4536","0.2456"
"291.5000","7.4572","0.2456"
"291.7200","7.4612","0.2458"
"291.9400","7.4646","0.2458"
"292.1600","7.4683","0.2458"
"292.3800","7.4720","0.2459"
"292.6000","7.4756","0.2461"
"292.8200","7.4796","0.2462"
"293.0400","7.4829","0.2461"
"293.2600","7.4866","0.2462"
"293.4800","7.4905","0.2464"
"293.7000","7.4941","0.2466"
"293.9200","7.4979","0.2467"
"294.1400","7.5012","0.2463"
"294.3600","7.5049","0.2466"
"294.5800","7.5090","0.2467"
"294.8000","7.5122","0.2466"
"295.0200","7.5160","0.2470"
"295.2400","7.5196","0.2468"
"295.4600","7.5232","0.2472"
"295.6800","7.5273","0.2470"
"295.9000","7.5306","0.2469"
"296.1200","7.5343","0.2470"
"296.3400","7.5381","0.2474"
"296.5600","7.5418","0.2473"
"296.7800","7.5455","0.2476"
"297.0000","7.5489","0.2475"
"297.2200","7.5527","0.2474"
"297.4400","7.5565","0.2475"
"297.6600","7.5600","0.2477"
"297.8800","7.5637","0.2481"
"298.1000","7.5673","0.2478"
"298.3200","7.5709","0.2479"
"298.5400","7.5749","0.2479"
"298.7600","7.5784","0.2478"
"298.9800","7.5819","0.2483"
"299.2000","7.5857","0.2479"
"299.4200","7.5895","0.2485"
"299.6400","7.5931","0.2485"
"299.8600","7.5966","0.2486"
"300.0800","7.6002","0.2489"
"300.3000","7.6042","0.2486"
"300.5200","7.6077","0.2487"
"300.7400","7.6112","0.2489"
"300.9600","7.6150","0.2489"
"301.1800","7.6186","0.2492"
"301.4000","7.6226","0.2487"
"301.6200","7.6260","0.2491"
"301.8400","7.6295","0.2491"
"302.0600","7.6335","0.2492"
"302.2800","7.6371","0.2491"
"302.5000","7.6408","0.2498"
"302.7200","7.6442","0.2494"
"302.9400","7.6479","0.2496"
"303.1600","7.6520","0.2496"
"303.3800","7.6553","0.2498"
"303.6000","7.6590","0.2496"
"303.8200","7.6626","0.2499"
"304.0400","7.6663","0.2500"
"304.2600","7.6702","0.2504"
"304.4800","7.6736","0.2501"
"304.7000","7.6772","0.2501"
"304.9200","7.6811","0.2500"
"305.1400","7.6848","0.2498"
"305.3600","7.6884","0.2504"
"305.5800","7.6919","0.2506"
"305.8000","7.6958","0.2505"
"306.0200","7.6996","0.2505"
"306.2400","7.7030","0.2507"
"306.4600","7.7066","0.2505"
"306.6800","7.7103","0.2510"
"306.9000","7.7141","0.2511"
"307.1200","7.7178","0.2512"
"307.3400","7.7213","0.2510"
"307.5600","7.7249","0.2511"
"307.7800","7.7289","0.2511"
"308.0000","7.7325","0.2514"
"308.2200","7.7361","0.2515"
"308.4400","7.7396","0.2511"
"308.6600","7.7433","0.2514"
"308.8800","7.7472","0.2512"
"309.1000","7.7506","0.2513"
"309.3200","7.7543","0.2516"
"309.5400","7.7581","0.2516"
"309.7600","7.7616","0.2518"
"309.9800","7.7656","0.2517"
"310.2000","7.7689","0.2516"
"310.4200","7.7725","0.2520"
"310.6400","7.7766","0.2523"
"310.8600","7.7801","0.2520"
"311.0800","7.7838","0.2521"
"311.3000","7.7872","0.2523"
"311.5200","7.7910","0.2524"
"311.7400","7.7950","0.2524"
"311.9600","7.7983","0.2523"
"312.1800","7.8020","0.2528"
"312.4000","7.8056","0.2529"
"312.6200","7.8092","0.2528"
"312.8400","7.8133","0.2528"
"313.0600","7.8166","0.2522"
"313.2800","7.8203","0.2530"
"313.5000","7.8241","0.2528"
"313.7200","7.8278","0.2530"
"313.9400","7.8314","0.2531"
"314.1600","7.8349","0.2533"
"314.3800","7.8387","0.2532"
"314.6000","7.8426","0.2534"
"314.8200","7.8460","0.2529"
"315.0400","7.8496","0.2533"
"315.2600","7.8533","0.2533"
"315.4800","7.8570","0.2540"
"315.7000","7.8608","0.2537"
"315.9200","7.8643","0.2537"
"316.1400","7.8679","0.2534"
"316.3600","7.8718","0.2537"
"316.5800","7.8755","0.2541"
"316.8000","7.8791","0.2544"
"317.0200","7.8826","0.2539"
"317.2400","7.8863","0.2544"
"317.4600","7.8903","0.2540"
"317.6800","7.8936","0.2540"
"317.9000","7.8972","0.2542"
"318.1200","7.9011","0.2544"
"318.3400","7.9046","0.2546"
"318.5600","7.9085","0.2547"
"318.7800","7.9119","0.2544"
"319.0000","7.9156","0.2545"
"319.2200","7.9196","0.2546"
"319.4400","7.9230","0.2547"
"319.6600","7.9267","0.2548"
"319.8240","7.9294","0.2546"