File: flexural/ES100_Trevor_Flexural_Data_10_1.csv
Specimen text inputs : Specimen text input  1,,""

Results Table 1
,Specimen text input  1
"10","h0_f2"

Results Table 2

Time,Displacement,Force
(s),(mm),(kN)
"0.0000","0.4313","0.0202"
"0.0600","0.4398","0.0218"
"0.1200","0.4413","0.0219"
"0.1800","0.4457","0.0217"
"0.2400","0.4505","0.0225"
"0.3000","0.4551","0.0232"
"0.3600","0.4602","0.0233"
"0.4200","0.4652","0.0242"
"0.4800","0.4701","0.0245"
"0.5400","0.4753","0.0249"
"0.6000","0.4801","0.0253"
"0.6600","0.4852","0.0265"
"0.7200","0.4901","0.0264"
"0.7800","0.4953","0.0266"
"0.8400","0.5003","0.0271"
"0.9000","0.5052","0.0275"
"0.9600","0.5104","0.0280"
"1.0200","0.5151","0.0289"
"1.0800","0.5203","0.0291"
"1.1400","0.5251","0.0294"
"1.2000","0.5302","0.0299"
"1.2600","0.5352","0.0306"
"1.3200","0.5401","0.0311"
"1.3800","0.5452","0.0314"
"1.4400","0.5501","0.0320"
"1.5000","0.5552","0.0325"
"1.5600","0.5602","0.0328"
"1.6200","0.5652","0.0334"
"1.6800","0.5703","0.0336"
"1.7400","0.5751","0.0342"
"1.8000","0.5801","0.0345"
"1.8600","0.5851","0.0354"
"1.9200","0.5902","0.0356"
"1.9800","0.5953","0.0359"
"2.0400","0.6001","0.0364"
"2.1000","0.6051","0.0367"
"2.1600","0.6101","0.0371"
"2.2200","0.6151","0.0378"
"2.2800","0.6202","0.0387"
"2.3400","0.6251","0.0391"
"2.4000","0.6303","0.0398"
"2.4600","0.6352","0.0398"
"2.5200","0.6401","0.0404"
"2.5800","0.6451","0.0407"
"2.6400","0.6501","0.0413"
"2.7000","0.6553","0.0419"
"2.7600","0.6601","0.0421"
"2.8200","0.6652","0.0431"
"2.8800","0.6701","0.0432"
"2.9400","0.6751","0.0436"
"3.0000","0.6802","0.0441"
"3.0600","0.6851","0.0449"
"3.1200","0.6903","0.0451"
"3.1800","0.6951","0.0456"
"3.2400","0.7003","0.0458"
"3.3000","0.7051","0.0465"
"3.3600","0.7102","0.0473"
"3.4200","0.7152","0.0476"
"3.4800","0.7201","0.0479"
"3.5400","0.7253","0.0482"
"3.6000","0.7301","0.0484"
"3.6600","0.7352","0.0493"
"3.7200","0.7401","0.0499"
"3.7800","0.7453","0.0502"
"3.8400","0.7502","0.0506"
"3.9000","0.7552","0.0511"
"3.9600","0.7603","0.0517"
"4.0200","0.7651","0.0522"
"4.0800","0.7703","0.0526"
"4.1400","0.7751","0.0529"
"4.2000","0.7802","0.0536"
"4.2600","0.7853","0.0541"
"4.3200","0.7901","0.0544"
"4.3800","0.7952","0.0550"
"4.4400","0.8000","0.0556"
"4.5000","0.8052","0.0554"
"4.5600","0.8102","0.0564"
"4.6200","0.8152","0.0571"
"4.6800","0.8203","0.0572"
"4.7400","0.8251","0.0578"
"4.8000","0.8301","0.0580"
"4.8600","0.8351","0.0589"
"4.9200","0.8401","0.0589"
"4.9800","0.8452","0.0595"
"5.0400","0.8501","0.0601"
"5.1000","0.8552","0.0606"
"5.1600","0.8601","0.0610"
"5.2200","0.8651","0.0614"
"5.2800","0.8702","0.0621"
"5.3400","0.8751","0.0623"
"5.4000","0.8803","0.0629"
"5.4600","0.8851","0.0633"
"5.5200","0.8902","0.0638"
"5.5800","0.8951","0.0643"
"5.6400","0.9001","0.0652"
"5.7000","0.9052","0.0656"
"5.7600","0.9101","0.0660"
"5.8200","0.9153","0.0662"
"5.8800","0.9201","0.0668"
"5.9400","0.9251","0.0671"
"6.0000","0.9301","0.0675"
"6.0600","0.9351","0.0684"
"6.1200","0.9402","0.0688"
"6.1800","0.9451","0.0690"
"6.2400","0.9503","0.0696"
"6.3000","0.9551","0.0703"
"6.3600","0.9602","0.0706"
"6.4200","0.9652","0.0709"
"6.4800","0.9701","0.0713"
"6.5400","0.9753","0.0719"
"6.6000","0.9801","0.0726"
"6.6600","0.9853","0.0727"
"6.7200","0.9901","0.0732"
"6.7800","0.9952","0.0737"
"6.8400","1.0002","0.0742"
"6.9000","1.0052","0.0746"
"6.9600","1.0103","0.0752"
"7.0200","1.0151","0.0760"
"7.0800","1.0202","0.0762"
"7.1400","1.0251","0.0767"
"7.2000","1.0302","0.0772"
"7.2600","1.0353","0.0778"
"7.3200","1.0401","0.0779"
"7.3800","1.0452","0.0788"
"7.4400","1.0501","0.0793"
"7.5000","1.0552","0.0798"
"7.5600","1.0602","0.0799"
"7.6200","1.0651","0.0808"
"7.6800","1.0702","0.0806"
"7.7400","1.0751","0.0810"
"7.8000","1.0802","0.0813"
"7.8600","1.0852","0.0825"
"7.9200","1.0902","0.0826"
"7.9800","1.0953","0.0830"
"8.0400","1.1002","0.0838"
"8.1000","1.1051","0.0840"
"8.1600","1.1101","0.0846"
"8.2200","1.1151","0.0852"
"8.2800","1.1202","0.0856"
"8.3400","1.1251","0.0861"
"8.4000","1.1303","0.0865"
"8.4600","1.1352","0.0870"
"8.5200","1.1402","0.0870"
"8.5800","1.1452","0.0878"
"8.6400","1.1501","0.0883"
"8.7000","1.1552","0.0890"
"8.7600","1.1601","0.0893"
"8.8200","1.1653","0.0898"
"8.8800","1.1701","0.0903"
"8.9400","1.1751","0.0906"
"9.0000","1.1802","0.0908"
"9.0600","1.1851","0.0916"
"9.1200","1.1903","0.0917"
"9.1800","1.1951","0.0922"
"9.2400","1.2003","0.0929"
"9.3000","1.2051","0.0934"
"9.3600","1.2102","0.0938"
"9.4200","1.2152","0.0939"
"9.4800","1.2201","0.0943"
"9.5400","1.2253","0.0949"
"9.6000","1.2301","0.0955"
"9.6600","1.2352","0.0960"
"9.7200","1.2401","0.0963"
"9.7800","1.2452","0.0967"
"9.8400","1.2502","0.0973"
"9.9000","1.2552","0.0978"
"9.9600","1.2604","0.0985"
"10.0200","1.2651","0.0987"
"10.0800","1.2703","0.0988"
"10.1400","1.2751","0.0998"
"10.2000","1.2802","0.1004"
"10.2600","1.2852","0.1007"
"10.3200","1.2901","0.1009"
"10.3800","1.2952","0.1011"
"10.4400","1.3001","0.1020"
"10.5000","1.3052","0.1020"
"10.5600","1.3102","0.1032"
"10.6200","1.3153","0.1032"
"10.6800","1.3203","0.1036"
"10.7400","1.3252","0.1043"
"10.8000","1.3302","0.1046"
"10.8600","1.3351","0.1054"
"10.9200","1.3401","0.1054"
"10.9800","1.3452","0.1059"
"11.0400","1.3502","0.1062"
"11.1000","1.3552","0.1069"
"11.1600","1.3601","0.1074"
"11.2200","1.3651","0.1077"
"11.2800","1.3702","0.1084"
"11.3400","1.3751","0.1085"
"11.4000","1.3803","0.1091"
"11.4600","1.3852","0.1095"
"11.5200","1.3902","0.1095"
"11.5800","1.3952","0.1104"
"11.6400","1.4001","0.1105"
"11.7000","1.4053","0.1114"
"11.7600","1.4101","0.1119"
"11.8200","1.4153","0.1119"
"11.8800","1.4201","0.1125"
"11.9400","1.4251","0.1130"
"12.0000","1.4301","0.1133"
"12.0600","1.4351","0.1137"
"12.1200","1.4403","0.1145"
"12.1800","1.4451","0.1151"
"12.2400","1.4502","0.1152"
"12.3000","1.4551","0.1158"
"12.3600","1.4602","0.1161"
"12.4200","1.4652","0.1163"
"12.4800","1.4702","0.1168"
"12.5400","1.4753","0.1172"
"12.6000","1.4801","0.1177"
"12.6600","1.4853","0.1182"
"12.7200","1.4901","0.1186"
"12.7800","1.4952","0.1190"
"12.8400","1.5003","0.1194"
"12.9000","1.5052","0.1198"
"12.9600","1.5103","0.1205"
"13.0200","1.5151","0.1211"
"13.0800","1.5203","0.1212"
"13.1400","1.5251","0.1216"
"13.2000","1.5303","0.1221"
"13.2600","1.5352","0.1225"
"13.3200","1.5401","0.1229"
"13.3800","1.5452","0.1232"
"13.4400","1.5501","0.1236"
"13.5000","1.5552","0.1243"
"13.5600","1.5602","0.1246"
"13.6200","1.5653","0.1250"
"13.6800","1.5703","0.1256"
"13.7400","1.5752","0.1258"
"13.8000","1.5801","0.1262"
"13.8600","1.5851","0.1265"
"13.9200","1.5901","0.1273"
"13.9800","1.5953","0.1277"
"14.0400","1.6001","0.1281"
"14.1000","1.6051","0.1283"
"14.1600","1.6101","0.1287"
"14.2200","1.6151","0.1287"
"14.2800","1.6202","0.1294"
"14.3400","1.6251","0.1301"
"14.4000","1.6303","0.1303"
"14.4600","1.6352","0.1307"
"14.5200","1.6402","0.1309"
"14.5800","1.6451","0.1313"
"14.6400","1.6501","0.1319"
"14.7000","1.6552","0.1322"
"14.7600","1.6601","0.1328"
"14.8200","1.6653","0.1332"
"14.8800","1.6701","0.1336"
"14.9400","1.6751","0.1338"
"15.0000","1.6801","0.1343"
"15.0600","1.6851","0.1350"
"15.1200","1.6902","0.1352"
"15.1800","1.6951","0.1353"
"15.2400","1.7002","0.1362"
"15.3000","1.7051","0.1363"
"15.3600","1.7102","0.1368"
"15.4200","1.7152","0.1372"
"15.4800","1.7202","0.1374"
"15.5400","1.7253","0.1381"
"15.6000","1.7301","0.1389"
"15.6600","1.7352","0.1391"
"15.7200","1.7401","0.1392"
"15.7800","1.7453","0.1398"
"15.8400","1.7502","0.1400"
"15.9000","1.7552","0.1404"
"15.9600","1.7604","0.1408"
"16.0200","1.7651","0.1415"
"16.0800","1.7702","0.1415"
"16.1400","1.7751","0.1421"
"16.2000","1.7802","0.1427"
"16.2600","1.7852","0.1429"
"16.3200","1.7901","0.1434"
"16.3800","1.7952","0.1435"
"16.4400","1.8001","0.1442"
"16.5000","1.8052","0.1445"
"16.5600","1.8102","0.1448"
"16.6200","1.8152","0.1453"
"16.6800","1.8203","0.1456"
"16.7400","1.8251","0.1460"
"16.8000","1.8301","0.1465"
"16.8600","1.8351","0.1469"
"16.9200","1.8401","0.1471"
"16.9800","1.8452","0.1476"
"17.0400","1.8501","0.1478"
"17.1000","1.8552","0.1485"
"17.1600","1.8601","0.1488"
"17.2200","1.8651","0.1490"
"17.2800","1.8702","0.1496"
"17.3400","1.8751","0.1500"
"17.4000","1.8803","0.1503"
"17.4600","1.8852","0.1506"
"17.5200","1.8902","0.1509"
"17.5800","1.8951","0.1515"
"17.6400","1.9001","0.1519"
"17.7000","1.9052","0.1521"
"17.7600","1.9101","0.1528"
"17.8200","1.9152","0.1529"
"17.8800","1.9201","0.1534"
"17.9400","1.9251","0.1536"
"18.0000","1.9301","0.1540"
"18.0600","1.9351","0.1547"
"18.1200","1.9403","0.1550"
"18.1800","1.9451","0.1551"
"18.2400","1.9503","0.1559"
"18.3000","1.9551","0.1561"
"18.3600","1.9602","0.1564"
"18.4200","1.9652","0.1567"
"18.4800","1.9702","0.1571"
"18.5400","1.9753","0.1574"
"18.6000","1.9801","0.1580"
"18.6600","1.9852","0.1586"
"18.7200","1.9901","0.1585"
"18.7800","1.9953","0.1591"
"18.8400","2.0003","0.1593"
"18.9000","2.0052","0.1599"
"18.9600","2.0104","0.1606"
"19.0200","2.0151","0.1606"
"19.0800","2.0203","0.1611"
"19.1400","2.0251","0.1615"
"19.2000","2.0302","0.1619"
"19.2600","2.0352","0.1626"
"19.3200","2.0401","0.1625"
"19.3800","2.0452","0.1627"
"19.4400","2.0501","0.1631"
"19.5000","2.0552","0.1637"
"19.5600","2.0602","0.1643"
"19.6200","2.0652","0.1643"
"19.6800","2.0703","0.1650"
"19.7400","2.0752","0.1654"
"19.8000","2.0802","0.1655"
"19.8600","2.0852","0.1663"
"19.9200","2.0901","0.1661"
"19.9800","2.0952","0.1666"
"20.0400","2.1002","0.1670"
"20.1000","2.1052","0.1673"
"20.1600","2.1101","0.1683"
"20.2200","2.1151","0.1682"
"20.2800","2.1202","0.1687"
"20.3400","2.1251","0.1689"
"20.4000","2.1303","0.1692"
"20.4600","2.1352","0.1697"
"20.5200","2.1401","0.1700"
"20.5800","2.1451","0.1703"
"20.6400","2.1501","0.1707"
"20.7000","2.1553","0.1711"
"20.7600","2.1601","0.1717"
"20.8200","2.1653","0.1717"
"20.8800","2.1701","0.1724"
"20.9400","2.1751","0.1727"
"21.0000","2.1802","0.1730"
"21.0600","2.1851","0.1734"
"21.1200","2.1902","0.1740"
"21.1800","2.1951","0.1740"
"21.2400","2.2003","0.1743"
"21.3000","2.2051","0.1746"
"21.3600","2.2102","0.1752"
"21.4200","2.2152","0.1753"
"21.4800","2.2201","0.1759"
"21.5400","2.2253","0.1758"
"21.6000","2.2301","0.1764"
"21.6600","2.2352","0.1771"
"21.7200","2.2401","0.1772"
"21.7800","2.2453","0.1775"
"21.8400","2.2503","0.1780"
"21.9000","2.2552","0.1785"
"21.9600","2.2604","0.1789"
"22.0200","2.2651","0.1792"
"22.0800","2.2703","0.1792"
"22.1400","2.2751","0.1798"
"22.2000","2.2802","0.1803"
"22.2600","2.2852","0.1807"
"22.3200","2.2902","0.1809"
"22.3800","2.2953","0.1810"
"22.4400","2.3001","0.1814"
"22.5000","2.3053","0.1818"
"22.5600","2.3102","0.1821"
"22.6200","2.3152","0.1823"
"22.6800","2.3203","0.1828"
"22.7400","2.3252","0.1828"
"22.8000","2.3302","0.1835"
"22.8600","2.3351","0.1839"
"22.9200","2.3401","0.1844"
"22.9800","2.3452","0.1844"
"23.0400","2.3502","0.1848"
"23.1000","2.3551","0.1851"
"23.1600","2.3601","0.1856"
"23.2200","2.3651","0.1859"
"23.2800","2.3702","0.1863"
"23.3400","2.3752","0.1865"
"23.4000","2.3803","0.1870"
"23.4600","2.3852","0.1871"
"23.5200","2.3901","0.1877"
"23.5800","2.3951","0.1881"
"23.6400","2.4001","0.1881"
"23.7000","2.4052","0.1886"
"23.7600","2.4101","0.1891"
"23.8200","2.4152","0.1894"
"23.8800","2.4201","0.1895"
"23.9400","2.4251","0.1903"
"24.0000","2.4301","0.1902"
"24.0600","2.4351","0.1907"
"24.1200","2.4403","0.1909"
"24.1800","2.4451","0.1915"
"24.2400","2.4503","0.1915"
"24.3000","2.4551","0.1921"
"24.3600","2.4602","0.1926"
"24.4200","2.4653","0.1926"
"24.4800","2.4702","0.1929"
"24.5400","2.4753","0.1931"
"24.6000","2.4801","0.1938"
"24.6600","2.4853","0.1939"
"24.7200","2.4901","0.1942"
"24.7800","2.4953","0.1944"
"24.8400","2.5003","0.1949"
"24.9000","2.5052","0.1954"
"24.9600","2.5104","0.1957"
"25.0200","2.5151","0.1960"
"25.0800","2.5203","0.1962"
"25.1400","2.5251","0.1965"
"25.2000","2.5302","0.1972"
"25.2600","2.5352","0.1974"
"25.3200","2.5401","0.1978"
"25.3800","2.5452","0.1982"
"25.4400","2.5501","0.1982"
"25.5000","2.5552","0.1987"
"25.5600","2.5602","0.1988"
"25.6200","2.5652","0.1991"
"25.6800","2.5703","0.1996"
"25.7400","2.5751","0.2002"
"25.8000","2.5801","0.2001"
"25.8600","2.5851","0.2003"
"25.9200","2.5901","0.2007"
"25.9800","2.5952","0.2006"
"26.0400","2.6002","0.2017"
"26.1000","2.6052","0.2018"
"26.1600","2.6101","0.2022"
"26.2200","2.6151","0.2022"
"26.2800","2.6202","0.2025"
"26.3400","2.6251","0.2032"
"26.4000","2.6302","0.2032"
"26.4600","2.6352","0.2035"
"26.5200","2.6402","0.2040"
"26.5800","2.6452","0.2043"
"26.6400","2.6501","0.2047"
"26.7000","2.6552","0.2046"
"26.7600","2.6601","0.2055"
"26.8200","2.6652","0.2053"
"26.8800","2.6701","0.2055"
"26.9400","2.6751","0.2061"
"27.0000","2.6802","0.2065"
"27.0600","2.6851","0.2068"
"27.1200","2.6903","0.2072"
"27.1800","2.6952","0.2074"
"27.2400","2.7003","0.2078"
"27.3000","2.7051","0.2083"
"27.3600","2.7102","0.2086"
"27.4200","2.7152","0.2086"
"27.4800","2.7201","0.2090"
"27.5400","2.7253","0.2094"
"27.6000","2.7301","0.2097"
"27.6600","2.7353","0.2101"
"27.7200","2.7401","0.2102"
"27.7800","2.7452","0.2104"
"27.8400","2.7503","0.2108"
"27.9000","2.7552","0.2113"
"27.9600","2.7603","0.2117"
"28.0200","2.7651","0.2119"
"28.0800","2.7702","0.2121"
"28.1400","2.7751","0.2122"
"28.2000","2.7802","0.2124"
"28.2600","2.7853","0.2132"
"28.3200","2.7901","0.2131"
"28.3800","2.7952","0.2135"
"28.4400","2.8001","0.2142"
"28.5000","2.8052","0.2140"
"28.5600","2.8101","0.2146"
"28.6200","2.8152","0.2146"
"28.6800","2.8203","0.2151"
"28.7400","2.8252","0.2154"
"28.8000","2.8302","0.2161"
"28.8600","2.8351","0.2164"
"28.9200","2.8401","0.2162"
"28.9800","2.8452","0.2166"
"29.0400","2.8501","0.2168"
"29.1000","2.8551","0.2174"
"29.1600","2.8601","0.2175"
"29.2200","2.8651","0.2175"
"29.2800","2.8702","0.2180"
"29.3400","2.8751","0.2183"
"29.4000","2.8803","0.2187"
"29.4600","2.8852","0.2192"
"29.5200","2.8901","0.2191"
"29.5800","2.8951","0.2193"
"29.6400","2.9001","0.2197"
"29.7000","2.9053","0.2202"
"29.7600","2.9101","0.2205"
"29.8200","2.9153","0.2209"
"29.8800","2.9201","0.2210"
"29.9400","2.9251","0.2213"
"30.0000","2.9301","0.2215"
"30.0600","2.9351","0.2221"
"30.1200","2.9403","0.2220"
"30.1800","2.9451","0.2227"
"30.2400","2.9503","0.2231"
"30.3000","2.9551","0.2231"
"30.3600","2.9602","0.2235"
"30.4200","2.9652","0.2236"
"30.4800","2.9701","0.2238"
"30.5400","2.9753","0.2243"
"30.6000","2.9801","0.2245"
"30.6600","2.9852","0.2251"
"30.7200","2.9901","0.2251"
"30.7800","2.9952","0.2252"
"30.8400","3.0003","0.2260"
"30.9000","3.0053","0.2262"
"30.9600","3.0104","0.2265"
"31.0200","3.0151","0.2265"
"31.0800","3.0203","0.2269"
"31.1400","3.0251","0.2270"
"31.2000","3.0302","0.2270"
"31.2600","3.0353","0.2275"
"31.3200","3.0401","0.2279"
"31.3800","3.0452","0.2282"
"31.4400","3.0501","0.2285"
"31.5000","3.0552","0.2290"
"31.5600","3.0602","0.2293"
"31.6200","3.0652","0.2295"
"31.6800","3.0703","0.2298"
"31.7400","3.0751","0.2300"
"31.8000","3.0801","0.2301"
"31.8600","3.0852","0.2304"
"31.9200","3.0902","0.2309"
"31.9800","3.0953","0.2310"
"32.0400","3.1002","0.2314"
"32.1000","3.1051","0.2316"
"32.1600","3.1101","0.2324"
"32.2200","3.1151","0.2320"
"32.2800","3.1202","0.2326"
"32.3400","3.1251","0.2328"
"32.4000","3.1302","0.2328"
"32.4600","3.1352","0.2331"
"32.5200","3.1402","0.2336"
"32.5800","3.1452","0.2338"
"32.6400","3.1502","0.2342"
"32.7000","3.1553","0.2344"
"32.7600","3.1601","0.2350"
"32.8200","3.1652","0.2350"
"32.8800","3.1701","0.2353"
"32.9400","3.1751","0.2353"
"33.0000","3.1802","0.2357"
"33.0600","3.1852","0.2361"
"33.1200","3.1903","0.2362"
"33.1800","3.1951","0.2366"
"33.2400","3.2003","0.2368"
"33.3000","3.2050","0.2370"
"33.3600","3.2102","0.2377"
"33.4200","3.2152","0.2375"
"33.4800","3.2202","0.2378"
"33.5400","3.2253","0.2382"
"33.6000","3.2301","0.2381"
"33.6600","3.2352","0.2390"
"33.7200","3.2401","0.2391"
"33.7800","3.2452","0.2391"
"33.8400","3.2502","0.2397"
"33.9000","3.2552","0.2399"
"33.9600","3.2604","0.2403"
"34.0200","3.2651","0.2404"
"34.0800","3.2702","0.2407"
"34.1400","3.2751","0.2410"
"34.2000","3.2802","0.2412"
"34.2600","3.2852","0.2419"
"34.3200","3.2901","0.2417"
"34.3800","3.2952","0.2418"
"34.4400","3.3001","0.2425"
"34.5000","3.3052","0.2423"
"34.5600","3.3102","0.2427"
"34.6200","3.3153","0.2432"
"34.6800","3.3203","0.2433"
"34.7400","3.3252","0.2435"
"34.8000","3.3301","0.2436"
"34.8600","3.3351","0.2440"
"34.9200","3.3401","0.2446"
"34.9800","3.3452","0.2445"
"35.0400","3.3502","0.2449"
"35.1000","3.3552","0.2449"
"35.1600","3.3602","0.2456"
"35.2200","3.3651","0.2458"
"35.2800","3.3702","0.2460"
"35.3400","3.3751","0.2464"
"35.4000","3.3803","0.2465"
"35.4600","3.3851","0.2468"
"35.5200","3.3901","0.2470"
"35.5800","3.3951","0.2471"
"35.6400","3.4001","0.2475"
"35.7000","3.4052","0.2476"
"35.7600","3.4101","0.2480"
"35.8200","3.4153","0.2481"
"35.8800","3.4201","0.2482"
"35.9400","3.4251","0.2488"
"36.0000","3.4301","0.2489"
"36.0600","3.4351","0.2498"
"36.1200","3.4402","0.2495"
"36.1800","3.4452","0.2495"
"36.2400","3.4503","0.2496"
"36.3000","3.4551","0.2500"
"36.3600","3.4602","0.2504"
"36.4200","3.4652","0.2506"
"36.4800","3.4701","0.2507"
"36.5400","3.4753","0.2509"
"36.6000","3.4801","0.2513"
"36.6600","3.4852","0.2516"
"36.7200","3.4901","0.2519"
"36.7800","3.4953","0.2519"
"36.8400","3.5003","0.2522"
"36.9000","3.5052","0.2526"
"36.9600","3.5103","0.2528"
"37.0200","3.5151","0.2530"
"37.0800","3.5202","0.2533"
"37.1400","3.5251","0.2533"
"37.2000","3.5302","0.2537"
"37.2600","3.5353","0.2537"
"37.3200","3.5401","0.2542"
"37.3800","3.5452","0.2541"
"37.4400","3.5501","0.2546"
"37.5000","3.5552","0.2548"
"37.5600","3.5602","0.2553"
"37.6200","3.5652","0.2552"
"37.6800","3.5702","0.2556"
"37.7400","3.5752","0.2556"
"37.8000","3.5802","0.2557"
"37.8600","3.5852","0.2560"
"37.9200","3.5901","0.2565"
"37.9800","3.5952","0.2564"
"38.0400","3.6002","0.2569"
"38.1000","3.6051","0.2570"
"38.1600","3.6101","0.2573"
"38.2200","3.6151","0.2576"
"38.2800","3.6202","0.2579"
"38.3400","3.6251","0.2582"
"38.4000","3.6303","0.2582"
"38.4600","3.6352","0.2587"
"38.5200","3.6402","0.2587"
"38.5800","3.6452","0.2590"
"38.6400","3.6501","0.2592"
"38.7000","3.6552","0.2598"
"38.7600","3.6601","0.2600"
"38.8200","3.6652","0.2599"
"38.8800","3.6701","0.2605"
"38.9400","3.6751","0.2600"
"39.0000","3.6802","0.2608"
"39.0600","3.6852","0.2610"
"39.1200","3.6903","0.2611"
"39.1800","3.6951","0.2615"
"39.2400","3.7002","0.2614"
"39.3000","3.7051","0.2619"
"39.3600","3.7102","0.2623"
"39.4200","3.7152","0.2622"
"39.4800","3.7202","0.2624"
"39.5400","3.7253","0.2629"
"39.6000","3.7301","0.2631"
"39.6600","3.7352","0.2633"
"39.7200","3.7401","0.2632"
"39.7800","3.7452","0.2636"
"39.8400","3.7502","0.2638"
"39.9000","3.7552","0.2641"
"39.9600","3.7604","0.2644"
"40.0200","3.7651","0.2649"
"40.0800","3.7703","0.2647"
"40.1400","3.7751","0.2649"
"40.2000","3.7802","0.2649"
"40.2600","3.7851","0.2652"
"40.3200","3.7901","0.2658"
"40.3800","3.7952","0.2653"
"40.4400","3.8001","0.2660"
"40.5000","3.8052","0.2660"
"40.5600","3.8102","0.2664"
"40.6200","3.8152","0.2665"
"40.6800","3.8203","0.2666"
"40.7400","3.8252","0.2669"
"40.8000","3.8301","0.2672"
"40.8600","3.8351","0.2681"
"40.9200","3.8401","0.2679"
"40.9800","3.8452","0.2678"
"41.0400","3.8502","0.2686"
"41.1000","3.8552","0.2681"
"41.1600","3.8601","0.2686"
"41.2200","3.8651","0.2686"
"41.2800","3.8702","0.2690"
"41.3400","3.8751","0.2695"
"41.4000","3.8803","0.2698"
"41.4600","3.8852","0.2699"
"41.5200","3.8902","0.2699"
"41.5800","3.8952","0.2707"
"41.6400","3.9001","0.2703"
"41.7000","3.9053","0.2709"
"41.7600","3.9101","0.2711"
"41.8200","3.9152","0.2711"
"41.8800","3.9201","0.2712"
"41.9400","3.9251","0.2715"
"42.0000","3.9301","0.2717"
"42.0600","3.9351","0.2722"
"42.1200","3.9402","0.2721"
"42.1800","3.9452","0.2724"
"42.2400","3.9503","0.2725"
"42.3000","3.9551","0.2732"
"42.3600","3.9602","0.2730"
"42.4200","3.9652","0.2731"
"42.4800","3.9701","0.2737"
"42.5400","3.9753","0.2737"
"42.6000","3.9801","0.2738"
"42.6600","3.9853","0.2741"
"42.7200","3.9901","0.2746"
"42.7800","3.9953","0.2749"
"42.8400","4.0003","0.2749"
"42.9000","4.0052","0.2748"
"42.9600","4.0103","0.2756"
"43.0200","4.0151","0.2753"
"43.0800","4.0203","0.2756"
"43.1400","4.0251","0.2755"
"43.2000","4.0303","0.2756"
"43.2600","4.0353","0.2755"
"43.3200","4.0401","0.2761"
"43.3800","4.0452","0.2761"
"43.4400","4.0500","0.2766"
"43.5000","4.0552","0.2768"
"43.5600","4.0602","0.2769"
"43.6200","4.0652","0.2769"
"43.6800","4.0703","0.2772"
"43.7400","4.0752","0.2776"
"43.8000","4.0801","0.2775"
"43.8600","4.0851","0.2780"
"43.9200","4.0902","0.2781"
"43.9800","4.0952","0.2783"
"44.0400","4.1001","0.2782"
"44.1000","4.1051","0.2785"
"44.1600","4.1101","0.2788"
"44.2200","4.1151","0.2789"
"44.2800","4.1202","0.2794"
"44.3400","4.1252","0.2795"
"44.4000","4.1303","0.2797"
"44.4600","4.1352","0.2802"
"44.5200","4.1401","0.2797"
"44.5800","4.1451","0.2805"
"44.6400","4.1501","0.2807"
"44.7000","4.1553","0.2813"
"44.7600","4.1601","0.2812"
"44.8200","4.1652","0.2813"
"44.8800","4.1701","0.2816"
"44.9400","4.1751","0.2817"
"45.0000","4.1801","0.2821"
"45.0600","4.1851","0.2823"
"45.1200","4.1903","0.2827"
"45.1800","4.1951","0.2828"
"45.2400","4.2003","0.2832"
"45.3000","4.2051","0.2828"
"45.3600","4.2102","0.2834"
"45.4200","4.2153","0.2832"
"45.4800","4.2202","0.2835"
"45.5400","4.2253","0.2839"
"45.6000","4.2301","0.2842"
"45.6600","4.2352","0.2845"
"45.7200","4.2401","0.2846"
"45.7800","4.2453","0.2846"
"45.8400","4.2502","0.2851"
"45.9000","4.2552","0.2852"
"45.9600","4.2603","0.2858"
"46.0200","4.2651","0.2858"
"46.0800","4.2702","0.2858"
"46.1400","4.2751","0.2866"
"46.2000","4.2802","0.2868"
"46.2600","4.2852","0.2866"
"46.3200","4.2901","0.2865"
"46.3800","4.2952","0.2871"
"46.4400","4.3001","0.2874"
"46.5000","4.3052","0.2876"
"46.5600","4.3102","0.2876"
"46.6200","4.3152","0.2880"
"46.6800","4.3202","0.2877"
"46.7400","4.3251","0.2880"
"46.8000","4.3301","0.2881"
"46.8600","4.3352","0.2888"
"46.9200","4.3402","0.2889"
"46.9800","4.3452","0.2889"
"47.0400","4.3502","0.2892"
"47.1000","4.3552","0.2891"
"47.1600","4.3601","0.2896"
"47.2200","4.3651","0.2894"
"47.2800","4.3702","0.2899"
"47.3400","4.3751","0.2902"
"47.4000","4.3803","0.2905"
"47.4600","4.3852","0.2906"
"47.5200","4.3901","0.2907"
"47.5800","4.3951","0.2910"
"47.6400","4.4001","0.2911"
"47.7000","4.4052","0.2913"
"47.7600","4.4101","0.2918"
"47.8200","4.4152","0.2916"
"47.8800","4.4201","0.2918"
"47.9400","4.4251","0.2923"
"48.0000","4.4302","0.2923"
"48.0600","4.4352","0.2925"
"48.1200","4.4403","0.2928"
"48.1800","4.4452","0.2930"
"48.2400","4.4503","0.2931"
"48.3000","4.4551","0.2931"
"48.3600","4.4602","0.2934"
"48.4200","4.4652","0.2936"
"48.4800","4.4701","0.2936"
"48.5400","4.4753","0.2938"
"48.6000","4.4801","0.2941"
"48.6600","4.4853","0.2941"
"48.7200","4.4901","0.2948"
"48.7800","4.4953","0.2949"
"48.8400","4.5002","0.2951"
"48.9000","4.5052","0.2950"
"48.9600","4.5103","0.2951"
"49.0200","4.5151","0.2955"
"49.0800","4.5202","0.2956"
"49.1400","4.5251","0.2958"
"49.2000","4.5302","0.2964"
"49.2600","4.5353","0.2963"
"49.3200","4.5402","0.2966"
"49.3800","4.5451","0.2964"
"49.4400","4.5501","0.2969"
"49.5000","4.5552","0.2970"
"49.5600","4.5602","0.2971"
"49.6200","4.5652","0.2975"
"49.6800","4.5703","0.2976"
"49.7400","4.5752","0.2976"
"49.8000","4.5801","0.2979"
"49.8600","4.5851","0.2983"
"49.9200","4.5901","0.2982"
"49.9800","4.5952","0.2986"
"50.0400","4.6002","0.2983"
"50.1000","4.6052","0.2989"
"50.1600","4.6101","0.2991"
"50.2200","4.6151","0.2992"
"50.2800","4.6203","0.2993"
"50.3400","4.6251","0.2997"
"50.4000","4.6303","0.2999"
"50.4600","4.6351","0.3000"
"50.5200","4.6401","0.3000"
"50.5800","4.6451","0.3001"
"50.6400","4.6501","0.3005"
"50.7000","4.6553","0.3007"
"50.7600","4.6601","0.3006"
"50.8200","4.6653","0.3010"
"50.8800","4.6701","0.3009"
"50.9400","4.6751","0.3010"
"51.0000","4.6801","0.3014"
"51.0600","4.6851","0.3017"
"51.1200","4.6903","0.3017"
"51.1800","4.6951","0.3019"
"51.2400","4.7003","0.3021"
"51.3000","4.7051","0.3026"
"51.3600","4.7102","0.3022"
"51.4200","4.7151","0.3025"
"51.4800","4.7201","0.3029"
"51.5400","4.7253","0.3028"
"51.6000","4.7301","0.3032"
"51.6600","4.7352","0.3035"
"51.7200","4.7401","0.3034"
"51.7800","4.7453","0.3036"
"51.8400","4.7503","0.3038"
"51.9000","4.7552","0.3041"
"51.9600","4.7603","0.3042"
"52.0200","4.7651","0.3044"
"52.0800","4.7702","0.3046"
"52.1400","4.7751","0.3047"
"52.2000","4.7803","0.3048"
"52.2600","4.7852","0.3048"
"52.3200","4.7901","0.3049"
"52.3800","4.7952","0.3051"
"52.4400","4.8001","0.3055"
"52.5000","4.8052","0.3059"
"52.5600","4.8101","0.3057"
"52.6200","4.8152","0.3061"
"52.6800","4.8203","0.3063"
"52.7400","4.8252","0.3062"
"52.8000","4.8301","0.3060"
"52.8600","4.8352","0.3070"
"52.9200","4.8402","0.3067"
"52.9800","4.8453","0.3069"
"53.0400","4.8502","0.3070"
"53.1000","4.8551","0.3071"
"53.1600","4.8601","0.3076"
"53.2200","4.8651","0.3076"
"53.2800","4.8702","0.3082"
"53.3400","4.8752","0.3078"
"53.4000","4.8803","0.3079"
"53.4600","4.8852","0.3081"
"53.5200","4.8901","0.3085"
"53.5800","4.8952","0.3086"
"53.6400","4.9001","0.3086"
"53.7000","4.9053","0.3088"
"53.7600","4.9101","0.3090"
"53.8200","4.9152","0.3087"
"53.8800","4.9201","0.3095"
"53.9400","4.9251","0.3091"
"54.0000","4.9302","0.3096"
"54.0600","4.9351","0.3098"
"54.1200","4.9403","0.3099"
"54.1800","4.9451","0.3097"
"54.2400","4.9503","0.3103"
"54.3000","4.9551","0.3104"
"54.3600","4.9602","0.3103"
"54.4200","4.9653","0.3104"
"54.4800","4.9702","0.3110"
"54.5400","4.9753","0.3108"
"54.6000","4.9801","0.3109"
"54.6600","4.9852","0.3114"
"54.7200","4.9901","0.3116"
"54.7800","4.9953","0.3118"
"54.8400","5.0003","0.3118"
"54.9000","5.0052","0.3123"
"54.9600","5.0104","0.3121"
"55.0200","5.0151","0.3123"
"55.0800","5.0203","0.3125"
"55.1400","5.0251","0.3126"
"55.2000","5.0303","0.3127"
"55.2600","5.0352","0.3129"
"55.3200","5.0401","0.3133"
"55.3800","5.0452","0.3133"
"55.4400","5.0501","0.3136"
"55.5000","5.0552","0.3136"
"55.5600","5.0602","0.3139"
"55.6200","5.0653","0.3136"
"55.6800","5.0703","0.3141"
"55.7400","5.0751","0.3139"
"55.8000","5.0801","0.3144"
"55.8600","5.0851","0.3149"
"55.9200","5.0901","0.3148"
"55.9800","5.0952","0.3151"
"56.0400","5.1002","0.3151"
"56.1000","5.1052","0.3152"
"56.1600","5.1102","0.3155"
"56.2200","5.1151","0.3158"
"56.2800","5.1202","0.3160"
"56.3400","5.1251","0.3163"
"56.4000","5.1302","0.3159"
"56.4600","5.1352","0.3165"
"56.5200","5.1401","0.3167"
"56.5800","5.1452","0.3164"
"56.6400","5.1502","0.3168"
"56.7000","5.1553","0.3169"
"56.7600","5.1601","0.3174"
"56.8200","5.1652","0.3173"
"56.8800","5.1701","0.3175"
"56.9400","5.1751","0.3176"
"57.0000","5.1801","0.3176"
"57.0600","5.1851","0.3176"
"57.1200","5.1903","0.3178"
"57.1800","5.1951","0.3180"
"57.2400","5.2003","0.3183"
"57.3000","5.2051","0.3186"
"57.3600","5.2102","0.3190"
"57.4200","5.2152","0.3189"
"57.4800","5.2202","0.3188"
"57.5400","5.2253","0.3192"
"57.6000","5.2301","0.3191"
"57.6600","5.2352","0.3196"
"57.7200","5.2401","0.3196"
"57.7800","5.2452","0.3197"
"57.8400","5.2502","0.3199"
"57.9000","5.2553","0.3201"
"57.9600","5.2603","0.3206"
"58.0200","5.2651","0.3204"
"58.0800","5.2703","0.3206"
"58.1400","5.2751","0.3201"
"58.2000","5.2803","0.3210"
"58.2600","5.2853","0.3210"
"58.3200","5.2901","0.3209"
"58.3800","5.2952","0.3210"
"58.4400","5.3001","0.3212"
"58.5000","5.3052","0.3215"
"58.5600","5.3101","0.3216"
"58.6200","5.3152","0.3217"
"58.6800","5.3203","0.3220"
"58.7400","5.3252","0.3219"
"58.8000","5.3301","0.3224"
"58.8600","5.3352","0.3225"
"58.9200","5.3402","0.3225"
"58.9800","5.3452","0.3227"
"59.0400","5.3501","0.3224"
"59.1000","5.3551","0.3224"
"59.1600","5.3601","0.3228"
"59.2200","5.3651","0.3229"
"59.2800","5.3702","0.3227"
"59.3400","5.3751","0.3233"
"59.4000","5.3802","0.3237"
"59.4600","5.3852","0.3231"
"59.5200","5.3901","0.3235"
"59.5800","5.3951","0.3234"
"59.6400","5.4001","0.3232"
"59.7000","5.4052","0.3240"
"59.7600","5.4101","0.3241"
"59.8200","5.4152","0.3240"
"59.8800","5.4201","0.3242"
"59.9400","5.4251","0.3241"
"60.0000","5.4301","0.3243"
"60.0600","5.4351","0.3248"
"60.1200","5.4402","0.3250"
"60.1800","5.4452","0.3250"
"60.2400","5.4503","0.3251"
"60.3000","5.4551","0.3253"
"60.3600","5.4602","0.3254"
"60.4200","5.4652","0.3255"
"60.4800","5.4702","0.3255"
"60.5400","5.4753","0.3256"
"60.6000","5.4801","0.3256"
"60.6600","5.4852","0.3257"
"60.7200","5.4901","0.3258"
"60.7800","5.4953","0.3262"
"60.8400","5.5003","0.3262"
"60.9000","5.5052","0.3263"
"60.9600","5.5103","0.3266"
"61.0200","5.5151","0.3270"
"61.0800","5.5203","0.3266"
"61.1400","5.5251","0.3269"
"61.2000","5.5302","0.3272"
"61.2600","5.5352","0.3268"
"61.3200","5.5401","0.3271"
"61.3800","5.5452","0.3271"
"61.4400","5.5501","0.3270"
"61.5000","5.5553","0.3270"
"61.5600","5.5602","0.3269"
"61.6200","5.5653","0.3265"
"61.6800","5.5703","0.3266"
"61.7400","5.5751","0.3268"
"61.8000","5.5801","0.3267"
"61.8600","5.5851","0.3274"
"61.9200","5.5902","0.3272"
"61.9800","5.5952","0.3274"
"62.0400","5.6002","0.3275"
"62.1000","5.6051","0.3276"
"62.1600","5.6101","0.3280"
"62.2200","5.6151","0.3279"
"62.2800","5.6202","0.3279"
"62.3400","5.6251","0.3281"
"62.4000","5.6302","0.3284"
"62.4600","5.6353","0.3284"
"62.5200","5.6402","0.3285"
"62.5800","5.6452","0.3286"
"62.6400","5.6501","0.3288"
"62.7000","5.6552","0.3290"
"62.7600","5.6601","0.3290"
"62.8200","5.6651","0.3292"
"62.8800","5.6701","0.3294"
"62.9400","5.6751","0.3295"
"63.0000","5.6802","0.3298"
"63.0600","5.6852","0.3298"
"63.1200","5.6903","0.3299"
"63.1800","5.6952","0.3295"
"63.2400","5.7003","0.3299"
"63.3000","5.7051","0.3300"
"63.3600","5.7102","0.3300"
"63.4200","5.7152","0.3299"
"63.4800","5.7202","0.3299"
"63.5400","5.7253","0.3301"
"63.6000","5.7301","0.3302"
"63.6600","5.7352","0.3301"
"63.7200","5.7401","0.3301"
"63.7800","5.7453","0.3304"
"63.8400","5.7502","0.3306"
"63.9000","5.7552","0.3308"
"63.9600","5.7603","0.3305"
"64.0200","5.7651","0.3313"
"64.0800","5.7703","0.3312"
"64.1400","5.7751","0.3311"
"64.2000","5.7802","0.3315"
"64.2600","5.7853","0.3312"
"64.3200","5.7902","0.3318"
"64.3800","5.7952","0.3315"
"64.4400","5.8000","0.3318"
"64.5000","5.8052","0.3320"
"64.5600","5.8102","0.3319"
"64.6200","5.8153","0.3323"
"64.6800","5.8203","0.3322"
"64.7400","5.8252","0.3329"
"64.8000","5.8302","0.3327"
"64.8600","5.8351","0.3332"
"64.9200","5.8401","0.3329"
"64.9800","5.8452","0.3333"
"65.0400","5.8502","0.3332"
"65.1000","5.8552","0.3334"
"65.1600","5.8602","0.3337"
"65.2200","5.8651","0.3338"
"65.2800","5.8702","0.3337"
"65.3400","5.8752","0.3339"
"65.4000","5.8802","0.3336"
"65.4600","5.8852","0.3342"
"65.5200","5.8901","0.3343"
"65.5800","5.8951","0.3341"
"65.6400","5.9001","0.3342"
"65.7000","5.9053","0.3340"
"65.7600","5.9101","0.3345"
"65.8200","5.9152","0.3346"
"65.8800","5.9201","0.3346"
"65.9400","5.9251","0.3349"
"66.0000","5.9301","0.3349"
"66.0600","5.9351","0.3350"
"66.1200","5.9402","0.3353"
"66.1800","5.9452","0.3353"
"66.2400","5.9503","0.3356"
"66.3000","5.9551","0.3355"
"66.3600","5.9602","0.3356"
"66.4200","5.9652","0.3358"
"66.4800","5.9701","0.3355"
"66.5400","5.9752","0.3357"
"66.6000","5.9801","0.3361"
"66.6600","5.9852","0.3361"
"66.7200","5.9901","0.3360"
"66.7800","5.9953","0.3362"
"66.8400","6.0003","0.3367"
"66.9000","6.0052","0.3360"
"66.9600","6.0103","0.3360"
"67.0200","6.0151","0.3362"
"67.0800","6.0202","0.3360"
"67.1400","6.0251","0.3362"
"67.2000","6.0303","0.3361"
"67.2600","6.0353","0.3364"
"67.3200","6.0401","0.3362"
"67.3800","6.0452","0.3367"
"67.4400","6.0501","0.3363"
"67.5000","6.0552","0.3370"
"67.5600","6.0602","0.3365"
"67.6200","6.0652","0.3364"
"67.6800","6.0702","0.3363"
"67.7400","6.0752","0.3360"
"67.8000","6.0802","0.3363"
"67.8600","6.0852","0.3363"
"67.9200","6.0901","0.3358"
"67.9800","6.0952","0.3359"
"68.0400","6.1002","0.3360"
"68.1000","6.1052","0.3355"
"68.1600","6.1101","0.3360"
"68.2200","6.1151","0.3356"
"68.2800","6.1202","0.3356"
"68.3400","6.1252","0.3354"
"68.4000","6.1303","0.3351"
"68.4600","6.1352","0.3353"
"68.5200","6.1402","0.3346"
"68.5800","6.1452","0.3343"
"68.6400","6.1501","0.3261"
"68.7000","6.1552","0.3196"
"68.7600","6.1601","0.3165"
"68.8200","6.1653","0.2172"
"68.8800","6.1702","0.1509"
"68.9400","6.1752","0.1497"
"69.0000","6.1802","0.1472"
"69.0600","6.1852","0.1458"
"69.1200","6.1903","0.1444"
"69.1800","6.1951","0.1435"
"69.2400","6.2003","0.1427"
"69.3000","6.2051","0.1421"
"69.3600","6.2103","0.1419"
"69.4200","6.2152","0.1413"
"69.4800","6.2202","0.1407"
"69.5400","6.2252","0.1402"
"69.6000","6.2301","0.1403"
"69.6600","6.2352","0.1394"
"69.7200","6.2401","0.1392"
"69.7800","6.2452","0.1386"
"69.8400","6.2503","0.1383"
"69.9000","6.2553","0.1381"
"69.9600","6.2603","0.1382"
"70.0200","6.2651","0.1376"
"70.0800","6.2703","0.1371"
"70.1400","6.2751","0.1368"
"70.2000","6.2803","0.1369"
"70.2600","6.2852","0.1366"
"70.3200","6.2902","0.1363"
"70.3800","6.2952","0.1356"
"70.4400","6.3001","0.1356"
"70.5000","6.3052","0.1357"
"70.5600","6.3102","0.1350"
"70.6200","6.3152","0.1351"
"70.6800","6.3203","0.1349"
"70.7400","6.3252","0.1342"
"70.8000","6.3301","0.1342"
"70.8600","6.3351","0.1341"
"70.9200","6.3401","0.1343"
"70.9800","6.3452","0.1340"
"71.0400","6.3502","0.1338"
"71.1000","6.3552","0.1341"
"71.1600","6.3601","0.1341"
"71.2200","6.3651","0.1338"
"71.2800","6.3702","0.1336"
"71.3400","6.3751","0.1337"
"71.4000","6.3802","0.1334"
"71.4600","6.3851","0.1334"
"71.5200","6.3902","0.1331"
"71.5800","6.3952","0.1332"
"71.6400","6.4001","0.1332"
"71.7000","6.4053","0.1329"
"71.7600","6.4101","0.1332"
"71.8200","6.4152","0.1329"
"71.8800","6.4201","0.1325"
"71.9400","6.4251","0.1322"
"72.0000","6.4302","0.1315"
"72.0320","6.4329","0.1317"