File: flexural/ES100_Trevor_Flexural_Data_2_1.csv
Specimen text inputs : Specimen text input  1,,""

Results Table 1
,Specimen text input  1
"2","b0_f2"

Results Table 2

Time,Displacement,Force
(s),(mm),(kN)
"0.0000","1.2966","0.0203"
"0.0800","1.3052","0.0232"
"0.1600","1.3095","0.0240"
"0.2400","1.3158","0.0244"
"0.3200","1.3222","0.0261"
"0.4000","1.3288","0.0275"
"0.4800","1.3354","0.0284"
"0.5600","1.3421","0.0297"
"0.6400","1.3488","0.0306"
"0.7200","1.3555","0.0318"
"0.8000","1.3621","0.0334"
"0.8800","1.3689","0.0344"
"0.9600","1.3754","0.0357"
"1.0400","1.3821","0.0371"
"1.1200","1.3888","0.0383"
"1.2000","1.3954","0.0395"
"1.2800","1.4021","0.0408"
"1.3600","1.4087","0.0424"
"1.4400","1.4155","0.0429"
"1.5200","1.4222","0.0445"
"1.6000","1.4288","0.0461"
"1.6800","1.4354","0.0472"
"1.7600","1.4421","0.0483"
"1.8400","1.4489","0.0500"
"1.9200","1.4554","0.0507"
"2.0000","1.4621","0.0521"
"2.0800","1.4688","0.0532"
"2.1600","1.4756","0.0546"
"2.2400","1.4821","0.0559"
"2.3200","1.4888","0.0572"
"2.4000","1.4956","0.0585"
"2.4800","1.5021","0.0598"
"2.5600","1.5088","0.0607"
"2.6400","1.5154","0.0624"
"2.7200","1.5223","0.0636"
"2.8000","1.5289","0.0650"
"2.8800","1.5355","0.0660"
"2.9600","1.5421","0.0677"
"3.0400","1.5488","0.0689"
"3.1200","1.5555","0.0700"
"3.2000","1.5620","0.0715"
"3.2800","1.5688","0.0730"
"3.3600","1.5755","0.0735"
"3.4400","1.5822","0.0752"
"3.5200","1.5888","0.0764"
"3.6000","1.5954","0.0778"
"3.6800","1.6021","0.0793"
"3.7600","1.6088","0.0802"
"3.8400","1.6154","0.0816"
"3.9200","1.6221","0.0827"
"4.0000","1.6288","0.0844"
"4.0800","1.6355","0.0857"
"4.1600","1.6422","0.0866"
"4.2400","1.6488","0.0882"
"4.3200","1.6555","0.0894"
"4.4000","1.6621","0.0907"
"4.4800","1.6687","0.0921"
"4.5600","1.6754","0.0930"
"4.6400","1.6821","0.0946"
"4.7200","1.6889","0.0957"
"4.8000","1.6954","0.0971"
"4.8800","1.7022","0.0985"
"4.9600","1.7089","0.0998"
"5.0400","1.7155","0.1008"
"5.1200","1.7221","0.1026"
"5.2000","1.7287","0.1035"
"5.2800","1.7355","0.1049"
"5.3600","1.7421","0.1063"
"5.4400","1.7489","0.1076"
"5.5200","1.7555","0.1087"
"5.6000","1.7622","0.1107"
"5.6800","1.7689","0.1114"
"5.7600","1.7754","0.1129"
"5.8400","1.7821","0.1142"
"5.9200","1.7888","0.1155"
"6.0000","1.7955","0.1166"
"6.0800","1.8021","0.1187"
"6.1600","1.8089","0.1192"
"6.2400","1.8155","0.1207"
"6.3200","1.8221","0.1217"
"6.4000","1.8287","0.1233"
"6.4800","1.8354","0.1250"
"6.5600","1.8421","0.1259"
"6.6400","1.8487","0.1272"
"6.7200","1.8555","0.1285"
"6.8000","1.8621","0.1300"
"6.8800","1.8689","0.1314"
"6.9600","1.8754","0.1326"
"7.0400","1.8821","0.1342"
"7.1200","1.8888","0.1352"
"7.2000","1.8954","0.1364"
"7.2800","1.9021","0.1378"
"7.3600","1.9087","0.1394"
"7.4400","1.9155","0.1404"
"7.5200","1.9222","0.1417"
"7.6000","1.9288","0.1430"
"7.6800","1.9354","0.1446"
"7.7600","1.9421","0.1464"
"7.8400","1.9489","0.1470"
"7.9200","1.9554","0.1485"
"8.0000","1.9621","0.1498"
"8.0800","1.9688","0.1513"
"8.1600","1.9756","0.1525"
"8.2400","1.9821","0.1539"
"8.3200","1.9888","0.1554"
"8.4000","1.9956","0.1568"
"8.4800","2.0021","0.1585"
"8.5600","2.0089","0.1594"
"8.6400","2.0154","0.1609"
"8.7200","2.0223","0.1622"
"8.8000","2.0289","0.1637"
"8.8800","2.0355","0.1645"
"8.9600","2.0421","0.1660"
"9.0400","2.0488","0.1678"
"9.1200","2.0555","0.1689"
"9.2000","2.0621","0.1702"
"9.2800","2.0688","0.1716"
"9.3600","2.0755","0.1726"
"9.4400","2.0823","0.1744"
"9.5200","2.0887","0.1758"
"9.6000","2.0954","0.1768"
"9.6800","2.1021","0.1783"
"9.7600","2.1088","0.1797"
"9.8400","2.1154","0.1807"
"9.9200","2.1220","0.1822"
"10.0000","2.1289","0.1835"
"10.0800","2.1355","0.1849"
"10.1600","2.1422","0.1862"
"10.2400","2.1488","0.1875"
"10.3200","2.1555","0.1892"
"10.4000","2.1621","0.1909"
"10.4800","2.1687","0.1918"
"10.5600","2.1754","0.1928"
"10.6400","2.1821","0.1945"
"10.7200","2.1889","0.1958"
"10.8000","2.1954","0.1973"
"10.8800","2.2021","0.1988"
"10.9600","2.2089","0.1994"
"11.0400","2.2155","0.2008"
"11.1200","2.2221","0.2025"
"11.2000","2.2287","0.2038"
"11.2800","2.2355","0.2051"
"11.3600","2.2422","0.2066"
"11.4400","2.2489","0.2077"
"11.5200","2.2555","0.2092"
"11.6000","2.2622","0.2106"
"11.6800","2.2689","0.2117"
"11.7600","2.2754","0.2133"
"11.8400","2.2821","0.2146"
"11.9200","2.2888","0.2157"
"12.0000","2.2956","0.2173"
"12.0800","2.3021","0.2187"
"12.1600","2.3089","0.2199"
"12.2400","2.3155","0.2212"
"12.3200","2.3222","0.2227"
"12.4000","2.3288","0.2240"
"12.4800","2.3354","0.2250"
"12.5600","2.3422","0.2266"
"12.6400","2.3488","0.2279"
"12.7200","2.3554","0.2291"
"12.8000","2.3621","0.2306"
"12.8800","2.3689","0.2320"
"12.9600","2.3755","0.2331"
"13.0400","2.3821","0.2344"
"13.1200","2.3888","0.2359"
"13.2000","2.3954","0.2371"
"13.2800","2.4021","0.2383"
"13.3600","2.4087","0.2400"
"13.4400","2.4155","0.2414"
"13.5200","2.4222","0.2431"
"13.6000","2.4288","0.2439"
"13.6800","2.4354","0.2455"
"13.7600","2.4421","0.2469"
"13.8400","2.4488","0.2485"
"13.9200","2.4554","0.2493"
"14.0000","2.4622","0.2508"
"14.0800","2.4689","0.2522"
"14.1600","2.4756","0.2538"
"14.2400","2.4821","0.2548"
"14.3200","2.4887","0.2562"
"14.4000","2.4956","0.2577"
"14.4800","2.5021","0.2586"
"14.5600","2.5089","0.2602"
"14.6400","2.5154","0.2615"
"14.7200","2.5223","0.2627"
"14.8000","2.5289","0.2643"
"14.8800","2.5355","0.2656"
"14.9600","2.5421","0.2667"
"15.0400","2.5488","0.2683"
"15.1200","2.5555","0.2695"
"15.2000","2.5621","0.2709"
"15.2800","2.5688","0.2725"
"15.3600","2.5755","0.2733"
"15.4400","2.5823","0.2750"
"15.5200","2.5888","0.2764"
"15.6000","2.5955","0.2777"
"15.6800","2.6021","0.2791"
"15.7600","2.6088","0.2802"
"15.8400","2.6154","0.2816"
"15.9200","2.6221","0.2833"
"16.0000","2.6288","0.2847"
"16.0800","2.6355","0.2858"
"16.1600","2.6422","0.2872"
"16.2400","2.6488","0.2889"
"16.3200","2.6555","0.2899"
"16.4000","2.6621","0.2913"
"16.4800","2.6687","0.2927"
"16.5600","2.6754","0.2937"
"16.6400","2.6821","0.2955"
"16.7200","2.6889","0.2968"
"16.8000","2.6954","0.2984"
"16.8800","2.7022","0.2997"
"16.9600","2.7089","0.3009"
"17.0400","2.7154","0.3022"
"17.1200","2.7221","0.3036"
"17.2000","2.7287","0.3050"
"17.2800","2.7356","0.3062"
"17.3600","2.7421","0.3077"
"17.4400","2.7489","0.3087"
"17.5200","2.7555","0.3103"
"17.6000","2.7623","0.3114"
"17.6800","2.7689","0.3129"
"17.7600","2.7754","0.3144"
"17.8400","2.7821","0.3158"
"17.9200","2.7888","0.3172"
"18.0000","2.7955","0.3179"
"18.0800","2.8021","0.3199"
"18.1600","2.8089","0.3210"
"18.2400","2.8155","0.3223"
"18.3200","2.8222","0.3237"
"18.4000","2.8288","0.3251"
"18.4800","2.8354","0.3266"
"18.5600","2.8421","0.3276"
"18.6400","2.8487","0.3290"
"18.7200","2.8554","0.3302"
"18.8000","2.8621","0.3317"
"18.8800","2.8689","0.3328"
"18.9600","2.8754","0.3344"
"19.0400","2.8821","0.3356"
"19.1200","2.8888","0.3368"
"19.2000","2.8954","0.3381"
"19.2800","2.9021","0.3397"
"19.3600","2.9088","0.3410"
"19.4400","2.9155","0.3421"
"19.5200","2.9222","0.3434"
"19.6000","2.9288","0.3446"
"19.6800","2.9354","0.3463"
"19.7600","2.9421","0.3478"
"19.8400","2.9489","0.3486"
"19.9200","2.9554","0.3498"
"20.0000","2.9621","0.3516"
"20.0800","2.9688","0.3528"
"20.1600","2.9756","0.3539"
"20.2400","2.9821","0.3554"
"20.3200","2.9888","0.3565"
"20.4000","2.9956","0.3583"
"20.4800","3.0021","0.3594"
"20.5600","3.0089","0.3608"
"20.6400","3.0154","0.3624"
"20.7200","3.0222","0.3635"
"20.8000","3.0288","0.3648"
"20.8800","3.0355","0.3660"
"20.9600","3.0421","0.3673"
"21.0400","3.0488","0.3685"
"21.1200","3.0555","0.3698"
"21.2000","3.0621","0.3714"
"21.2800","3.0688","0.3727"
"21.3600","3.0754","0.3736"
"21.4400","3.0822","0.3753"
"21.5200","3.0888","0.3766"
"21.6000","3.0955","0.3781"
"21.6800","3.1021","0.3793"
"21.7600","3.1088","0.3804"
"21.8400","3.1154","0.3817"
"21.9200","3.1220","0.3831"
"22.0000","3.1289","0.3847"
"22.0800","3.1356","0.3857"
"22.1600","3.1422","0.3875"
"22.2400","3.1488","0.3883"
"22.3200","3.1555","0.3895"
"22.4000","3.1621","0.3914"
"22.4800","3.1687","0.3923"
"22.5600","3.1754","0.3942"
"22.6400","3.1821","0.3952"
"22.7200","3.1889","0.3967"
"22.8000","3.1954","0.3983"
"22.8800","3.2021","0.3995"
"22.9600","3.2089","0.4006"
"23.0400","3.2155","0.4021"
"23.1200","3.2221","0.4034"
"23.2000","3.2287","0.4052"
"23.2800","3.2355","0.4064"
"23.3600","3.2421","0.4077"
"23.4400","3.2488","0.4088"
"23.5200","3.2555","0.4102"
"23.6000","3.2623","0.4115"
"23.6800","3.2689","0.4130"
"23.7600","3.2754","0.4142"
"23.8400","3.2821","0.4158"
"23.9200","3.2888","0.4168"
"24.0000","3.2955","0.4184"
"24.0800","3.3021","0.4199"
"24.1600","3.3089","0.4209"
"24.2400","3.3156","0.4224"
"24.3200","3.3222","0.4240"
"24.4000","3.3288","0.4248"
"24.4800","3.3354","0.4265"
"24.5600","3.3421","0.4279"
"24.6400","3.3487","0.4289"
"24.7200","3.3554","0.4301"
"24.8000","3.3621","0.4314"
"24.8800","3.3689","0.4327"
"24.9600","3.3754","0.4339"
"25.0400","3.3821","0.4356"
"25.1200","3.3888","0.4366"
"25.2000","3.3954","0.4377"
"25.2800","3.4021","0.4393"
"25.3600","3.4088","0.4407"
"25.4400","3.4155","0.4419"
"25.5200","3.4221","0.4431"
"25.6000","3.4288","0.4446"
"25.6800","3.4354","0.4457"
"25.7600","3.4421","0.4473"
"25.8400","3.4489","0.4484"
"25.9200","3.4554","0.4498"
"26.0000","3.4621","0.4510"
"26.0800","3.4688","0.4526"
"26.1600","3.4756","0.4538"
"26.2400","3.4821","0.4550"
"26.3200","3.4888","0.4560"
"26.4000","3.4956","0.4576"
"26.4800","3.5021","0.4588"
"26.5600","3.5088","0.4604"
"26.6400","3.5154","0.4615"
"26.7200","3.5223","0.4630"
"26.8000","3.5288","0.4642"
"26.8800","3.5355","0.4650"
"26.9600","3.5421","0.4663"
"27.0400","3.5488","0.4678"
"27.1200","3.5555","0.4687"
"27.2000","3.5620","0.4708"
"27.2800","3.5688","0.4717"
"27.3600","3.5755","0.4731"
"27.4400","3.5822","0.4745"
"27.5200","3.5888","0.4757"
"27.6000","3.5955","0.4770"
"27.6800","3.6021","0.4781"
"27.7600","3.6088","0.4794"
"27.8400","3.6154","0.4812"
"27.9200","3.6221","0.4821"
"28.0000","3.6289","0.4835"
"28.0800","3.6355","0.4847"
"28.1600","3.6422","0.4865"
"28.2400","3.6487","0.4878"
"28.3200","3.6555","0.4890"
"28.4000","3.6621","0.4904"
"28.4800","3.6687","0.4917"
"28.5600","3.6754","0.4931"
"28.6400","3.6821","0.4943"
"28.7200","3.6889","0.4958"
"28.8000","3.6954","0.4974"
"28.8800","3.7022","0.4983"
"28.9600","3.7089","0.4996"
"29.0400","3.7155","0.5010"
"29.1200","3.7221","0.5026"
"29.2000","3.7287","0.5038"
"29.2800","3.7355","0.5049"
"29.3600","3.7421","0.5063"
"29.4400","3.7489","0.5077"
"29.5200","3.7555","0.5094"
"29.6000","3.7623","0.5100"
"29.6800","3.7689","0.5115"
"29.7600","3.7754","0.5127"
"29.8400","3.7821","0.5140"
"29.9200","3.7886","0.5149"
"30.0000","3.7955","0.5169"
"30.0800","3.8021","0.5181"
"30.1600","3.8089","0.5196"
"30.2400","3.8156","0.5203"
"30.3200","3.8222","0.5218"
"30.4000","3.8287","0.5228"
"30.4800","3.8354","0.5248"
"30.5600","3.8421","0.5260"
"30.6400","3.8488","0.5270"
"30.7200","3.8554","0.5281"
"30.8000","3.8621","0.5297"
"30.8800","3.8689","0.5314"
"30.9600","3.8754","0.5322"
"31.0400","3.8821","0.5336"
"31.1200","3.8888","0.5353"
"31.2000","3.8954","0.5362"
"31.2800","3.9021","0.5375"
"31.3600","3.9088","0.5390"
"31.4400","3.9155","0.5399"
"31.5200","3.9222","0.5412"
"31.6000","3.9288","0.5426"
"31.6800","3.9354","0.5439"
"31.7600","3.9421","0.5456"
"31.8400","3.9488","0.5468"
"31.9200","3.9554","0.5479"
"32.0000","3.9621","0.5491"
"32.0800","3.9688","0.5504"
"32.1600","3.9756","0.5515"
"32.2400","3.9821","0.5527"
"32.3200","3.9888","0.5543"
"32.4000","3.9956","0.5557"
"32.4800","4.0021","0.5567"
"32.5600","4.0088","0.5579"
"32.6400","4.0154","0.5592"
"32.7200","4.0223","0.5605"
"32.8000","4.0289","0.5616"
"32.8800","4.0356","0.5632"
"32.9600","4.0421","0.5642"
"33.0400","4.0488","0.5653"
"33.1200","4.0555","0.5662"
"33.2000","4.0620","0.5679"
"33.2800","4.0688","0.5688"
"33.3600","4.0755","0.5703"
"33.4400","4.0823","0.5717"
"33.5200","4.0887","0.5726"
"33.6000","4.0954","0.5741"
"33.6800","4.1021","0.5753"
"33.7600","4.1088","0.5768"
"33.8400","4.1154","0.5782"
"33.9200","4.1221","0.5789"
"34.0000","4.1289","0.5807"
"34.0800","4.1355","0.5815"
"34.1600","4.1421","0.5831"
"34.2400","4.1487","0.5849"
"34.3200","4.1555","0.5855"
"34.4000","4.1622","0.5869"
"34.4800","4.1687","0.5881"
"34.5600","4.1754","0.5893"
"34.6400","4.1821","0.5909"
"34.7200","4.1889","0.5918"
"34.8000","4.1954","0.5932"
"34.8800","4.2022","0.5949"
"34.9600","4.2089","0.5954"
"35.0400","4.2155","0.5973"
"35.1200","4.2221","0.5980"
"35.2000","4.2287","0.5999"
"35.2800","4.2355","0.6008"
"35.3600","4.2421","0.6027"
"35.4400","4.2489","0.6032"
"35.5200","4.2556","0.6050"
"35.6000","4.2622","0.6064"
"35.6800","4.2689","0.6077"
"35.7600","4.2754","0.6086"
"35.8400","4.2821","0.6096"
"35.9200","4.2887","0.6113"
"36.0000","4.2956","0.6124"
"36.0800","4.3021","0.6138"
"36.1600","4.3089","0.6150"
"36.2400","4.3156","0.6163"
"36.3200","4.3221","0.6176"
"36.4000","4.3288","0.6192"
"36.4800","4.3354","0.6200"
"36.5600","4.3422","0.6211"
"36.6400","4.3488","0.6224"
"36.7200","4.3554","0.6237"
"36.8000","4.3621","0.6251"
"36.8800","4.3689","0.6265"
"36.9600","4.3754","0.6274"
"37.0400","4.3821","0.6286"
"37.1200","4.3888","0.6300"
"37.2000","4.3954","0.6314"
"37.2800","4.4021","0.6328"
"37.3600","4.4087","0.6338"
"37.4400","4.4155","0.6349"
"37.5200","4.4222","0.6362"
"37.6000","4.4288","0.6379"
"37.6800","4.4354","0.6385"
"37.7600","4.4421","0.6404"
"37.8400","4.4489","0.6415"
"37.9200","4.4554","0.6425"
"38.0000","4.4621","0.6439"
"38.0800","4.4688","0.6451"
"38.1600","4.4756","0.6465"
"38.2400","4.4821","0.6474"
"38.3200","4.4888","0.6489"
"38.4000","4.4956","0.6499"
"38.4800","4.5021","0.6514"
"38.5600","4.5088","0.6527"
"38.6400","4.5154","0.6535"
"38.7200","4.5223","0.6549"
"38.8000","4.5288","0.6563"
"38.8800","4.5355","0.6575"
"38.9600","4.5421","0.6588"
"39.0400","4.5488","0.6599"
"39.1200","4.5555","0.6614"
"39.2000","4.5621","0.6624"
"39.2800","4.5688","0.6637"
"39.3600","4.5755","0.6652"
"39.4400","4.5823","0.6665"
"39.5200","4.5888","0.6673"
"39.6000","4.5954","0.6687"
"39.6800","4.6021","0.6699"
"39.7600","4.6088","0.6713"
"39.8400","4.6154","0.6723"
"39.9200","4.6221","0.6734"
"40.0000","4.6289","0.6750"
"40.0800","4.6355","0.6761"
"40.1600","4.6422","0.6775"
"40.2400","4.6488","0.6783"
"40.3200","4.6556","0.6795"
"40.4000","4.6621","0.6808"
"40.4800","4.6686","0.6822"
"40.5600","4.6754","0.6834"
"40.6400","4.6821","0.6845"
"40.7200","4.6889","0.6854"
"40.8000","4.6954","0.6872"
"40.8800","4.7022","0.6885"
"40.9600","4.7089","0.6898"
"41.0400","4.7155","0.6906"
"41.1200","4.7221","0.6920"
"41.2000","4.7287","0.6935"
"41.2800","4.7355","0.6940"
"41.3600","4.7421","0.6957"
"41.4400","4.7489","0.6970"
"41.5200","4.7555","0.6982"
"41.6000","4.7622","0.6996"
"41.6800","4.7689","0.7004"
"41.7600","4.7754","0.7020"
"41.8400","4.7821","0.7034"
"41.9200","4.7887","0.7045"
"42.0000","4.7955","0.7054"
"42.0800","4.8021","0.7069"
"42.1600","4.8088","0.7082"
"42.2400","4.8155","0.7092"
"42.3200","4.8222","0.7105"
"42.4000","4.8288","0.7117"
"42.4800","4.8355","0.7129"
"42.5600","4.8421","0.7143"
"42.6400","4.8488","0.7153"
"42.7200","4.8554","0.7164"
"42.8000","4.8621","0.7180"
"42.8800","4.8689","0.7189"
"42.9600","4.8755","0.7203"
"43.0400","4.8821","0.7214"
"43.1200","4.8888","0.7230"
"43.2000","4.8954","0.7239"
"43.2800","4.9021","0.7251"
"43.3600","4.9088","0.7264"
"43.4400","4.9155","0.7275"
"43.5200","4.9223","0.7289"
"43.6000","4.9288","0.7302"
"43.6800","4.9354","0.7316"
"43.7600","4.9421","0.7330"
"43.8400","4.9489","0.7338"
"43.9200","4.9554","0.7351"
"44.0000","4.9621","0.7364"
"44.0800","4.9688","0.7379"
"44.1600","4.9756","0.7385"
"44.2400","4.9821","0.7400"
"44.3200","4.9888","0.7413"
"44.4000","4.9955","0.7424"
"44.4800","5.0021","0.7440"
"44.5600","5.0089","0.7449"
"44.6400","5.0154","0.7462"
"44.7200","5.0223","0.7471"
"44.8000","5.0289","0.7488"
"44.8800","5.0354","0.7499"
"44.9600","5.0421","0.7509"
"45.0400","5.0488","0.7527"
"45.1200","5.0555","0.7532"
"45.2000","5.0621","0.7550"
"45.2800","5.0688","0.7557"
"45.3600","5.0754","0.7570"
"45.4400","5.0822","0.7584"
"45.5200","5.0888","0.7594"
"45.6000","5.0955","0.7606"
"45.6800","5.1022","0.7618"
"45.7600","5.1088","0.7628"
"45.8400","5.1154","0.7643"
"45.9200","5.1220","0.7652"
"46.0000","5.1289","0.7668"
"46.0800","5.1355","0.7679"
"46.1600","5.1422","0.7694"
"46.2400","5.1488","0.7705"
"46.3200","5.1555","0.7715"
"46.4000","5.1621","0.7724"
"46.4800","5.1687","0.7739"
"46.5600","5.1754","0.7747"
"46.6400","5.1821","0.7761"
"46.7200","5.1889","0.7777"
"46.8000","5.1954","0.7785"
"46.8800","5.2021","0.7798"
"46.9600","5.2089","0.7811"
"47.0400","5.2155","0.7821"
"47.1200","5.2221","0.7835"
"47.2000","5.2287","0.7852"
"47.2800","5.2355","0.7859"
"47.3600","5.2421","0.7873"
"47.4400","5.2489","0.7882"
"47.5200","5.2556","0.7897"
"47.6000","5.2622","0.7912"
"47.6800","5.2688","0.7920"
"47.7600","5.2754","0.7933"
"47.8400","5.2821","0.7942"
"47.9200","5.2888","0.7957"
"48.0000","5.2955","0.7965"
"48.0800","5.3020","0.7979"
"48.1600","5.3089","0.7993"
"48.2400","5.3155","0.8001"
"48.3200","5.3222","0.8017"
"48.4000","5.3288","0.8026"
"48.4800","5.3354","0.8038"
"48.5600","5.3421","0.8052"
"48.6400","5.3487","0.8063"
"48.7200","5.3554","0.8073"
"48.8000","5.3621","0.8087"
"48.8800","5.3689","0.8100"
"48.9600","5.3754","0.8111"
"49.0400","5.3821","0.8121"
"49.1200","5.3888","0.8137"
"49.2000","5.3954","0.8152"
"49.2800","5.4021","0.8159"
"49.3600","5.4087","0.8171"
"49.4400","5.4155","0.8184"
"49.5200","5.4222","0.8196"
"49.6000","5.4288","0.8210"
"49.6800","5.4354","0.8215"
"49.7600","5.4421","0.8232"
"49.8400","5.4488","0.8244"
"49.9200","5.4554","0.8257"
"50.0000","5.4622","0.8268"
"50.0800","5.4688","0.8283"
"50.1600","5.4756","0.8292"
"50.2400","5.4821","0.8303"
"50.3200","5.4887","0.8314"
"50.4000","5.4955","0.8326"
"50.4800","5.5021","0.8340"
"50.5600","5.5089","0.8352"
"50.6400","5.5154","0.8365"
"50.7200","5.5223","0.8373"
"50.8000","5.5288","0.8389"
"50.8800","5.5354","0.8394"
"50.9600","5.5421","0.8410"
"51.0400","5.5488","0.8421"
"51.1200","5.5555","0.8433"
"51.2000","5.5621","0.8447"
"51.2800","5.5688","0.8457"
"51.3600","5.5754","0.8469"
"51.4400","5.5823","0.8480"
"51.5200","5.5888","0.8493"
"51.6000","5.5955","0.8504"
"51.6800","5.6021","0.8513"
"51.7600","5.6088","0.8528"
"51.8400","5.6153","0.8540"
"51.9200","5.6220","0.8552"
"52.0000","5.6289","0.8560"
"52.0800","5.6356","0.8574"
"52.1600","5.6422","0.8586"
"52.2400","5.6488","0.8598"
"52.3200","5.6555","0.8609"
"52.4000","5.6621","0.8620"
"52.4800","5.6687","0.8635"
"52.5600","5.6754","0.8641"
"52.6400","5.6821","0.8656"
"52.7200","5.6889","0.8668"
"52.8000","5.6955","0.8682"
"52.8800","5.7021","0.8693"
"52.9600","5.7089","0.8703"
"53.0400","5.7155","0.8717"
"53.1200","5.7221","0.8727"
"53.2000","5.7287","0.8740"
"53.2800","5.7356","0.8753"
"53.3600","5.7421","0.8762"
"53.4400","5.7488","0.8771"
"53.5200","5.7554","0.8781"
"53.6000","5.7622","0.8796"
"53.6800","5.7689","0.8809"
"53.7600","5.7754","0.8818"
"53.8400","5.7821","0.8833"
"53.9200","5.7888","0.8842"
"54.0000","5.7954","0.8852"
"54.0800","5.8020","0.8864"
"54.1600","5.8089","0.8873"
"54.2400","5.8156","0.8885"
"54.3200","5.8222","0.8896"
"54.4000","5.8288","0.8912"
"54.4800","5.8354","0.8925"
"54.5600","5.8421","0.8935"
"54.6400","5.8488","0.8946"
"54.7200","5.8555","0.8958"
"54.8000","5.8622","0.8968"
"54.8800","5.8689","0.8979"
"54.9600","5.8755","0.8991"
"55.0400","5.8821","0.8999"
"55.1200","5.8888","0.9016"
"55.2000","5.8954","0.9029"
"55.2800","5.9021","0.9042"
"55.3600","5.9088","0.9050"
"55.4400","5.9155","0.9060"
"55.5200","5.9222","0.9075"
"55.6000","5.9288","0.9087"
"55.6800","5.9354","0.9096"
"55.7600","5.9421","0.9111"
"55.8400","5.9489","0.9124"
"55.9200","5.9554","0.9138"
"56.0000","5.9621","0.9146"
"56.0800","5.9688","0.9159"
"56.1600","5.9755","0.9167"
"56.2400","5.9821","0.9184"
"56.3200","5.9888","0.9196"
"56.4000","5.9956","0.9206"
"56.4800","6.0021","0.9217"
"56.5600","6.0089","0.9228"
"56.6400","6.0153","0.9238"
"56.7200","6.0222","0.9251"
"56.8000","6.0289","0.9262"
"56.8800","6.0355","0.9276"
"56.9600","6.0421","0.9284"
"57.0400","6.0488","0.9295"
"57.1200","6.0555","0.9306"
"57.2000","6.0620","0.9320"
"57.2800","6.0687","0.9330"
"57.3600","6.0755","0.9341"
"57.4400","6.0822","0.9354"
"57.5200","6.0887","0.9367"
"57.6000","6.0955","0.9373"
"57.6800","6.1021","0.9387"
"57.7600","6.1088","0.9396"
"57.8400","6.1154","0.9413"
"57.9200","6.1221","0.9422"
"58.0000","6.1289","0.9433"
"58.0800","6.1355","0.9446"
"58.1600","6.1422","0.9459"
"58.2400","6.1488","0.9468"
"58.3200","6.1554","0.9478"
"58.4000","6.1621","0.9491"
"58.4800","6.1687","0.9507"
"58.5600","6.1754","0.9516"
"58.6400","6.1821","0.9527"
"58.7200","6.1889","0.9539"
"58.8000","6.1954","0.9547"
"58.8800","6.2021","0.9563"
"58.9600","6.2089","0.9571"
"59.0400","6.2155","0.9582"
"59.1200","6.2221","0.9595"
"59.2000","6.2287","0.9605"
"59.2800","6.2356","0.9616"
"59.3600","6.2421","0.9632"
"59.4400","6.2489","0.9642"
"59.5200","6.2556","0.9648"
"59.6000","6.2623","0.9666"
"59.6800","6.2689","0.9674"
"59.7600","6.2754","0.9684"
"59.8400","6.2821","0.9693"
"59.9200","6.2887","0.9707"
"60.0000","6.2955","0.9717"
"60.0800","6.3021","0.9731"
"60.1600","6.3089","0.9744"
"60.2400","6.3155","0.9755"
"60.3200","6.3222","0.9764"
"60.4000","6.3288","0.9782"
"60.4800","6.3354","0.9789"
"60.5600","6.3421","0.9799"
"60.6400","6.3487","0.9806"
"60.7200","6.3555","0.9820"
"60.8000","6.3621","0.9830"
"60.8800","6.3689","0.9843"
"60.9600","6.3754","0.9855"
"61.0400","6.3821","0.9867"
"61.1200","6.3888","0.9880"
"61.2000","6.3955","0.9889"
"61.2800","6.4021","0.9902"
"61.3600","6.4087","0.9911"
"61.4400","6.4155","0.9923"
"61.5200","6.4222","0.9933"
"61.6000","6.4288","0.9947"
"61.6800","6.4355","0.9959"
"61.7600","6.4421","0.9972"
"61.8400","6.4488","0.9979"
"61.9200","6.4554","0.9991"
"62.0000","6.4621","1.0003"
"62.0800","6.4688","1.0015"
"62.1600","6.4756","1.0027"
"62.2400","6.4821","1.0034"
"62.3200","6.4888","1.0050"
"62.4000","6.4956","1.0060"
"62.4800","6.5021","1.0073"
"62.5600","6.5088","1.0077"
"62.6400","6.5154","1.0098"
"62.7200","6.5223","1.0105"
"62.8000","6.5289","1.0114"
"62.8800","6.5355","1.0127"
"62.9600","6.5421","1.0138"
"63.0400","6.5488","1.0145"
"63.1200","6.5555","1.0158"
"63.2000","6.5620","1.0173"
"63.2800","6.5688","1.0184"
"63.3600","6.5755","1.0190"
"63.4400","6.5823","1.0206"
"63.5200","6.5887","1.0217"
"63.6000","6.5954","1.0229"
"63.6800","6.6021","1.0243"
"63.7600","6.6088","1.0248"
"63.8400","6.6154","1.0262"
"63.9200","6.6221","1.0272"
"64.0000","6.6289","1.0282"
"64.0800","6.6355","1.0294"
"64.1600","6.6421","1.0310"
"64.2400","6.6487","1.0316"
"64.3200","6.6555","1.0331"
"64.4000","6.6622","1.0341"
"64.4800","6.6687","1.0353"
"64.5600","6.6754","1.0364"
"64.6400","6.6822","1.0376"
"64.7200","6.6889","1.0386"
"64.8000","6.6955","1.0397"
"64.8800","6.7022","1.0411"
"64.9600","6.7089","1.0418"
"65.0400","6.7154","1.0431"
"65.1200","6.7221","1.0441"
"65.2000","6.7286","1.0459"
"65.2800","6.7356","1.0466"
"65.3600","6.7422","1.0479"
"65.4400","6.7489","1.0475"
"65.5200","6.7555","1.0475"
"65.6000","6.7622","1.0488"
"65.6800","6.7689","1.0499"
"65.7600","6.7754","1.0506"
"65.8400","6.7821","1.0521"
"65.9200","6.7888","1.0531"
"66.0000","6.7955","1.0539"
"66.0800","6.8021","1.0555"
"66.1600","6.8089","1.0561"
"66.2400","6.8155","1.0571"
"66.3200","6.8222","1.0584"
"66.4000","6.8288","1.0590"
"66.4800","6.8354","1.0605"
"66.5600","6.8421","1.0615"
"66.6400","6.8488","1.0623"
"66.7200","6.8554","1.0636"
"66.8000","6.8621","1.0649"
"66.8800","6.8689","1.0662"
"66.9600","6.8754","1.0669"
"67.0400","6.8822","1.0685"
"67.1200","6.8888","1.0693"
"67.2000","6.8954","1.0703"
"67.2800","6.9021","1.0713"
"67.3600","6.9087","1.0721"
"67.4400","6.9154","1.0732"
"67.5200","6.9222","1.0744"
"67.6000","6.9288","1.0760"
"67.6800","6.9354","1.0768"
"67.7600","6.9421","1.0777"
"67.8400","6.9489","1.0768"
"67.9200","6.9554","1.0774"
"68.0000","6.9621","1.0787"
"68.0800","6.9687","1.0798"
"68.1600","6.9756","1.0808"
"68.2400","6.9821","1.0817"
"68.3200","6.9887","1.0829"
"68.4000","6.9956","1.0837"
"68.4800","7.0021","1.0851"
"68.5600","7.0089","1.0859"
"68.6400","7.0154","1.0871"
"68.7200","7.0223","1.0880"
"68.8000","7.0288","1.0896"
"68.8800","7.0355","1.0903"
"68.9600","7.0421","1.0913"
"69.0400","7.0488","1.0922"
"69.1200","7.0555","1.0932"
"69.2000","7.0621","1.0945"
"69.2800","7.0688","1.0950"
"69.3600","7.0754","1.0965"
"69.4400","7.0823","1.0973"
"69.5200","7.0888","1.0984"
"69.6000","7.0955","1.0997"
"69.6800","7.1021","1.1008"
"69.7600","7.1088","1.1019"
"69.8400","7.1154","1.1029"
"69.9200","7.1220","1.1040"
"70.0000","7.1288","1.1048"
"70.0800","7.1355","1.0983"
"70.1600","7.1422","1.0995"
"70.2400","7.1488","1.1000"
"70.3200","7.1556","1.1007"
"70.4000","7.1621","1.1018"
"70.4800","7.1687","1.1027"
"70.5600","7.1754","1.1037"
"70.6400","7.1821","1.1047"
"70.7200","7.1889","1.1056"
"70.8000","7.1955","1.1064"
"70.8800","7.2022","1.1075"
"70.9600","7.2089","1.1087"
"71.0400","7.2155","1.1091"
"71.1200","7.2221","1.1109"
"71.2000","7.2287","1.1111"
"71.2800","7.2356","1.1113"
"71.3600","7.2421","1.1123"
"71.4400","7.2489","1.1129"
"71.5200","7.2555","1.1124"
"71.6000","7.2623","1.1134"
"71.6800","7.2689","1.1142"
"71.7600","7.2754","1.1150"
"71.8400","7.2821","1.1160"
"71.9200","7.2887","1.1172"
"72.0000","7.2955","1.1182"
"72.0800","7.3021","1.1192"
"72.1600","7.3089","1.1201"
"72.2400","7.3155","1.1208"
"72.3200","7.3222","1.1221"
"72.4000","7.3288","1.1228"
"72.4800","7.3354","1.1238"
"72.5600","7.3421","1.1249"
"72.6400","7.3487","1.1261"
"72.7200","7.3554","1.1268"
"72.8000","7.3621","1.1283"
"72.8800","7.3689","1.1291"
"72.9600","7.3755","1.1298"
"73.0400","7.3821","1.1311"
"73.1200","7.3888","1.1321"
"73.2000","7.3954","1.1329"
"73.2800","7.4021","1.1340"
"73.3600","7.4087","1.1352"
"73.4400","7.4155","1.1330"
"73.5200","7.4222","1.1325"
"73.6000","7.4288","1.1333"
"73.6800","7.4354","1.1342"
"73.7600","7.4421","1.1352"
"73.8400","7.4488","1.1360"
"73.9200","7.4554","1.1370"
"74.0000","7.4621","1.1379"
"74.0800","7.4689","1.1389"
"74.1600","7.4756","1.1397"
"74.2400","7.4821","1.1353"
"74.3200","7.4888","1.1360"
"74.4000","7.4955","1.1365"
"74.4800","7.5021","1.1374"
"74.5600","7.5089","1.1383"
"74.6400","7.5154","1.1392"
"74.7200","7.5223","1.1400"
"74.8000","7.5289","1.1411"
"74.8800","7.5355","1.1417"
"74.9600","7.5421","1.1426"
"75.0400","7.5488","1.1438"
"75.1200","7.5556","1.1446"
"75.2000","7.5621","1.1456"
"75.2800","7.5687","1.1465"
"75.3600","7.5754","1.1474"
"75.4400","7.5823","1.1486"
"75.5200","7.5887","1.1495"
"75.6000","7.5955","1.1506"
"75.6800","7.6021","1.1516"
"75.7600","7.6087","1.1523"
"75.8400","7.6154","1.1534"
"75.9200","7.6221","1.1540"
"76.0000","7.6289","1.1552"
"76.0800","7.6355","1.1561"
"76.1600","7.6422","1.1571"
"76.2400","7.6488","1.1582"
"76.3200","7.6555","1.1591"
"76.4000","7.6621","1.1602"
"76.4800","7.6686","1.1612"
"76.5600","7.6754","1.1620"
"76.6400","7.6821","1.1632"
"76.7200","7.6889","1.1638"
"76.8000","7.6955","1.1651"
"76.8800","7.7021","1.1660"
"76.9600","7.7089","1.1672"
"77.0400","7.7154","1.1667"
"77.1200","7.7221","1.1668"
"77.2000","7.7287","1.1682"
"77.2800","7.7356","1.1685"
"77.3600","7.7421","1.1695"
"77.4400","7.7488","1.1704"
"77.5200","7.7555","1.1719"
"77.6000","7.7622","1.1727"
"77.6800","7.7689","1.1733"
"77.7600","7.7754","1.1743"
"77.8400","7.7821","1.1752"
"77.9200","7.7888","1.1766"
"78.0000","7.7955","1.1773"
"78.0800","7.8021","1.1782"
"78.1600","7.8089","1.1794"
"78.2400","7.8155","1.1801"
"78.3200","7.8222","1.1813"
"78.4000","7.8288","1.1824"
"78.4800","7.8354","1.1834"
"78.5600","7.8421","1.1845"
"78.6400","7.8488","1.1851"
"78.7200","7.8555","1.1864"
"78.8000","7.8621","1.1873"
"78.8800","7.8689","1.1882"
"78.9600","7.8754","1.1889"
"79.0400","7.8821","1.1904"
"79.1200","7.8888","1.1917"
"79.2000","7.8954","1.1922"
"79.2800","7.9021","1.1935"
"79.3600","7.9088","1.1944"
"79.4400","7.9155","1.1949"
"79.5200","7.9222","1.1964"
"79.6000","7.9288","1.1972"
"79.6800","7.9354","1.1981"
"79.7600","7.9421","1.1992"
"79.8400","7.9489","1.1999"
"79.9200","7.9554","1.1990"
"80.0000","7.9622","1.2006"
"80.0800","7.9688","1.2015"
"80.1600","7.9755","1.2025"
"80.2400","7.9821","1.2032"
"80.3200","7.9887","1.2046"
"80.4000","7.9956","1.2052"
"80.4800","8.0021","1.2064"
"80.5600","8.0089","1.2072"
"80.6400","8.0154","1.2080"
"80.7200","8.0223","1.2091"
"80.8000","8.0288","1.2101"
"80.8800","8.0354","1.2107"
"80.9600","8.0421","1.2117"
"81.0400","8.0488","1.2131"
"81.1200","8.0555","1.2136"
"81.2000","8.0620","1.2149"
"81.2800","8.0688","1.2161"
"81.3600","8.0755","1.2169"
"81.4400","8.0823","1.2178"
"81.5200","8.0888","1.2189"
"81.6000","8.0955","1.2199"
"81.6800","8.1021","1.2205"
"81.7600","8.1088","1.2216"
"81.8400","8.1154","1.2228"
"81.9200","8.1221","1.2234"
"82.0000","8.1289","1.2248"
"82.0800","8.1355","1.2255"
"82.1600","8.1422","1.2270"
"82.2400","8.1488","1.2280"
"82.3200","8.1555","1.2287"
"82.4000","8.1621","1.2299"
"82.4800","8.1687","1.2305"
"82.5600","8.1754","1.2317"
"82.6400","8.1821","1.2325"
"82.7200","8.1889","1.2335"
"82.8000","8.1954","1.2347"
"82.8800","8.2021","1.2358"
"82.9600","8.2089","1.2368"
"83.0400","8.2154","1.2376"
"83.1200","8.2221","1.2387"
"83.2000","8.2287","1.2395"
"83.2800","8.2355","1.2397"
"83.3600","8.2422","1.2403"
"83.4400","8.2489","1.2409"
"83.5200","8.2554","1.2420"
"83.6000","8.2623","1.2386"
"83.6800","8.2689","1.2377"
"83.7600","8.2754","1.2381"
"83.8400","8.2821","1.2371"
"83.9200","8.2888","1.2377"
"84.0000","8.2954","1.2335"
"84.0800","8.3020","1.2327"
"84.1600","8.3088","1.2328"
"84.2400","8.3156","1.2329"
"84.3200","8.3222","1.2337"
"84.4000","8.3288","1.2341"
"84.4800","8.3354","1.2352"
"84.5600","8.3421","1.2353"
"84.6400","8.3488","1.2360"
"84.7200","8.3555","1.2370"
"84.8000","8.3622","1.2375"
"84.8800","8.3689","1.2384"
"84.9600","8.3754","1.2391"
"85.0400","8.3821","1.2400"
"85.1200","8.3888","1.2408"
"85.2000","8.3954","1.2416"
"85.2800","8.4021","1.2428"
"85.3600","8.4088","1.2433"
"85.4400","8.4155","1.2440"
"85.5200","8.4222","1.2447"
"85.6000","8.4288","1.2455"
"85.6800","8.4354","1.2457"
"85.7600","8.4422","1.2468"
"85.8400","8.4489","1.2474"
"85.9200","8.4554","1.2481"
"86.0000","8.4621","1.2488"
"86.0800","8.4689","1.1254"
"86.1600","8.4756","1.0985"
"86.2400","8.4822","1.0857"
"86.3200","8.4888","1.0833"
"86.4000","8.4956","1.0818"
"86.4800","8.5021","1.0813"
"86.5600","8.5088","1.0789"
"86.6400","8.5154","1.0751"
"86.7200","8.5222","1.0719"
"86.8000","8.5289","1.0715"
"86.8800","8.5356","1.0405"
"86.9600","8.5421","0.9928"
"87.0400","8.5488","0.9881"
"87.1200","8.5555","0.9857"
"87.2000","8.5620","0.9840"
"87.2800","8.5688","0.9832"
"87.3600","8.5755","0.9823"
"87.4400","8.5823","0.9824"
"87.5200","8.5888","0.9818"
"87.6000","8.5955","0.9816"
"87.6800","8.6021","0.9820"
"87.7600","8.6088","0.9819"
"87.8400","8.6154","0.9819"
"87.9200","8.6221","0.9823"
"88.0000","8.6289","0.9831"
"88.0800","8.6356","0.9828"
"88.1600","8.6422","0.9836"
"88.2400","8.6488","0.9834"
"88.3200","8.6555","0.9840"
"88.4000","8.6622","0.9847"
"88.4800","8.6687","0.9848"
"88.5600","8.6754","0.9850"
"88.6400","8.6821","0.9853"
"88.7200","8.6889","0.9830"
"88.8000","8.6954","0.9826"
"88.8800","8.7022","0.9794"
"88.9600","8.7089","0.9772"
"89.0400","8.7155","0.9722"
"89.1200","8.7221","0.9654"
"89.2000","8.7287","0.9614"
"89.2800","8.7356","0.9583"
"89.3600","8.7422","0.9572"
"89.4400","8.7489","0.9565"
"89.5200","8.7555","0.9558"
"89.6000","8.7623","0.9559"
"89.6800","8.7689","0.9556"
"89.7600","8.7754","0.9555"
"89.8400","8.7821","0.9560"
"89.9200","8.7887","0.9561"
"90.0000","8.7955","0.9536"
"90.0800","8.8021","0.9388"
"90.1600","8.8089","0.9350"
"90.2400","8.8156","0.9317"
"90.3200","8.8223","0.9302"
"90.4000","8.8288","0.9290"
"90.4800","8.8354","0.9280"
"90.5600","8.8421","0.9273"
"90.6400","8.8487","0.9268"
"90.7200","8.8555","0.9257"
"90.8000","8.8622","0.9261"
"90.8800","8.8689","0.9259"
"90.9600","8.8754","0.9256"
"91.0400","8.8821","0.9259"
"91.1200","8.8888","0.9261"
"91.2000","8.8954","0.9263"
"91.2800","8.9021","0.9266"
"91.3600","8.9087","0.9267"
"91.4400","8.9155","0.9270"
"91.5200","8.9222","0.9274"
"91.6000","8.9288","0.9275"
"91.6800","8.9355","0.9280"
"91.7600","8.9421","0.9287"
"91.8400","8.9488","0.9289"
"91.9200","8.9554","0.9290"
"92.0000","8.9621","0.9291"
"92.0800","8.9688","0.9297"
"92.1600","8.9756","0.9305"
"92.2400","8.9821","0.9310"
"92.3200","8.9888","0.9317"
"92.4000","8.9956","0.9320"
"92.4800","9.0021","0.9324"
"92.5600","9.0088","0.9328"
"92.6400","9.0154","0.9333"
"92.7200","9.0223","0.9339"
"92.8000","9.0289","0.9344"
"92.8800","9.0356","0.9353"
"92.9600","9.0421","0.9354"
"93.0400","9.0488","0.9361"
"93.1200","9.0555","0.9361"
"93.2000","9.0620","0.9369"
"93.2800","9.0688","0.9372"
"93.3600","9.0755","0.9348"
"93.4400","9.0823","0.9353"
"93.5200","9.0887","0.9354"
"93.6000","9.0955","0.9358"
"93.6800","9.1021","0.9362"
"93.7600","9.1088","0.9368"
"93.8400","9.1154","0.9370"
"93.9200","9.1221","0.9372"
"93.9220","9.1223","0.9372"