File: flexural/ES100_Trevor_Flexural_Data_5_1.csv
Specimen text inputs : Specimen text input  1,,""

Results Table 1
,Specimen text input  1
"5","f0_f1"

Results Table 2

Time,Displacement,Force
(s),(mm),(kN)
"0.0000","1.3307","0.0202"
"0.1000","1.3399","0.0220"
"0.2000","1.3464","0.0224"
"0.3000","1.3545","0.0232"
"0.4000","1.3628","0.0240"
"0.5000","1.3711","0.0247"
"0.6000","1.3796","0.0252"
"0.7000","1.3879","0.0261"
"0.8000","1.3961","0.0265"
"0.9000","1.4046","0.0274"
"1.0000","1.4129","0.0286"
"1.1000","1.4212","0.0289"
"1.2000","1.4295","0.0296"
"1.3000","1.4379","0.0302"
"1.4000","1.4462","0.0314"
"1.5000","1.4544","0.0316"
"1.6000","1.4629","0.0327"
"1.7000","1.4711","0.0332"
"1.8000","1.4794","0.0342"
"1.9000","1.4879","0.0347"
"2.0000","1.4963","0.0356"
"2.1000","1.5045","0.0361"
"2.2000","1.5129","0.0370"
"2.3000","1.5213","0.0375"
"2.4000","1.5296","0.0386"
"2.5000","1.5378","0.0392"
"2.6000","1.5463","0.0400"
"2.7000","1.5545","0.0410"
"2.8000","1.5628","0.0415"
"2.9000","1.5713","0.0421"
"3.0000","1.5795","0.0434"
"3.1000","1.5878","0.0438"
"3.2000","1.5961","0.0446"
"3.3000","1.6044","0.0456"
"3.4000","1.6127","0.0458"
"3.5000","1.6211","0.0465"
"3.6000","1.6296","0.0474"
"3.7000","1.6379","0.0482"
"3.8000","1.6461","0.0487"
"3.9000","1.6546","0.0495"
"4.0000","1.6628","0.0507"
"4.1000","1.6712","0.0512"
"4.2000","1.6795","0.0521"
"4.3000","1.6878","0.0526"
"4.4000","1.6962","0.0536"
"4.5000","1.7044","0.0544"
"4.6000","1.7129","0.0552"
"4.7000","1.7211","0.0552"
"4.8000","1.7294","0.0565"
"4.9000","1.7379","0.0571"
"5.0000","1.7462","0.0579"
"5.1000","1.7546","0.0587"
"5.2000","1.7629","0.0596"
"5.3000","1.7712","0.0603"
"5.4000","1.7795","0.0610"
"5.5000","1.7878","0.0617"
"5.6000","1.7963","0.0623"
"5.7000","1.8045","0.0633"
"5.8000","1.8127","0.0639"
"5.9000","1.8212","0.0642"
"6.0000","1.8294","0.0652"
"6.1000","1.8377","0.0663"
"6.2000","1.8461","0.0671"
"6.3000","1.8545","0.0678"
"6.4000","1.8628","0.0689"
"6.5000","1.8711","0.0690"
"6.6000","1.8796","0.0700"
"6.7000","1.8879","0.0708"
"6.8000","1.8961","0.0713"
"6.9000","1.9046","0.0723"
"7.0000","1.9128","0.0734"
"7.1000","1.9212","0.0738"
"7.2000","1.9295","0.0746"
"7.3000","1.9378","0.0754"
"7.4000","1.9462","0.0763"
"7.5000","1.9544","0.0771"
"7.6000","1.9629","0.0775"
"7.7000","1.9712","0.0785"
"7.8000","1.9794","0.0793"
"7.9000","1.9879","0.0796"
"8.0000","1.9962","0.0808"
"8.1000","2.0046","0.0808"
"8.2000","2.0129","0.0822"
"8.3000","2.0212","0.0826"
"8.4000","2.0296","0.0836"
"8.5000","2.0378","0.0840"
"8.6000","2.0463","0.0847"
"8.7000","2.0545","0.0855"
"8.8000","2.0628","0.0862"
"8.9000","2.0712","0.0869"
"9.0000","2.0795","0.0877"
"9.1000","2.0877","0.0887"
"9.2000","2.0961","0.0891"
"9.3000","2.1044","0.0899"
"9.4000","2.1128","0.0907"
"9.5000","2.1211","0.0916"
"9.6000","2.1296","0.0922"
"9.7000","2.1379","0.0925"
"9.8000","2.1461","0.0936"
"9.9000","2.1546","0.0944"
"10.0000","2.1628","0.0950"
"10.1000","2.1712","0.0957"
"10.2000","2.1795","0.0963"
"10.3000","2.1878","0.0971"
"10.4000","2.1961","0.0974"
"10.5000","2.2044","0.0985"
"10.6000","2.2129","0.0989"
"10.7000","2.2212","0.0996"
"10.8000","2.2294","0.1008"
"10.9000","2.2379","0.1015"
"11.0000","2.2462","0.1020"
"11.1000","2.2546","0.1029"
"11.2000","2.2629","0.1036"
"11.3000","2.2713","0.1041"
"11.4000","2.2796","0.1051"
"11.5000","2.2879","0.1055"
"11.6000","2.2963","0.1064"
"11.7000","2.3046","0.1070"
"11.8000","2.3128","0.1077"
"11.9000","2.3212","0.1082"
"12.0000","2.3295","0.1089"
"12.1000","2.3377","0.1100"
"12.2000","2.3462","0.1105"
"12.3000","2.3544","0.1114"
"12.4000","2.3628","0.1119"
"12.5000","2.3711","0.1123"
"12.6000","2.3796","0.1130"
"12.7000","2.3879","0.1133"
"12.8000","2.3962","0.1142"
"12.9000","2.4046","0.1152"
"13.0000","2.4128","0.1159"
"13.1000","2.4212","0.1167"
"13.2000","2.4295","0.1171"
"13.3000","2.4378","0.1180"
"13.4000","2.4461","0.1182"
"13.5000","2.4544","0.1190"
"13.6000","2.4629","0.1200"
"13.7000","2.4712","0.1208"
"13.8000","2.4794","0.1211"
"13.9000","2.4879","0.1217"
"14.0000","2.4962","0.1224"
"14.1000","2.5046","0.1234"
"14.2000","2.5129","0.1239"
"14.3000","2.5213","0.1244"
"14.4000","2.5296","0.1251"
"14.5000","2.5378","0.1259"
"14.6000","2.5463","0.1265"
"14.7000","2.5545","0.1271"
"14.8000","2.5628","0.1278"
"14.9000","2.5712","0.1283"
"15.0000","2.5794","0.1288"
"15.1000","2.5878","0.1297"
"15.2000","2.5962","0.1301"
"15.3000","2.6045","0.1308"
"15.4000","2.6128","0.1314"
"15.5000","2.6211","0.1321"
"15.6000","2.6296","0.1329"
"15.7000","2.6379","0.1335"
"15.8000","2.6462","0.1339"
"15.9000","2.6546","0.1347"
"16.0000","2.6628","0.1354"
"16.1000","2.6712","0.1358"
"16.2000","2.6795","0.1365"
"16.3000","2.6879","0.1374"
"16.4000","2.6962","0.1379"
"16.5000","2.7044","0.1384"
"16.6000","2.7129","0.1392"
"16.7000","2.7211","0.1395"
"16.8000","2.7294","0.1403"
"16.9000","2.7379","0.1410"
"17.0000","2.7462","0.1415"
"17.1000","2.7546","0.1421"
"17.2000","2.7629","0.1431"
"17.3000","2.7713","0.1432"
"17.4000","2.7796","0.1439"
"17.5000","2.7878","0.1445"
"17.6000","2.7962","0.1451"
"17.7000","2.8045","0.1459"
"17.8000","2.8128","0.1462"
"17.9000","2.8213","0.1470"
"18.0000","2.8295","0.1475"
"18.1000","2.8378","0.1485"
"18.2000","2.8461","0.1489"
"18.3000","2.8544","0.1496"
"18.4000","2.8628","0.1502"
"18.5000","2.8711","0.1508"
"18.6000","2.8796","0.1515"
"18.7000","2.8879","0.1520"
"18.8000","2.8961","0.1523"
"18.9000","2.9046","0.1531"
"19.0000","2.9128","0.1538"
"19.1000","2.9212","0.1544"
"19.2000","2.9295","0.1547"
"19.3000","2.9378","0.1555"
"19.4000","2.9462","0.1561"
"19.5000","2.9544","0.1567"
"19.6000","2.9629","0.1576"
"19.7000","2.9711","0.1579"
"19.8000","2.9794","0.1586"
"19.9000","2.9878","0.1592"
"20.0000","2.9963","0.1599"
"20.1000","3.0046","0.1604"
"20.2000","3.0129","0.1613"
"20.3000","3.0213","0.1617"
"20.4000","3.0296","0.1623"
"20.5000","3.0378","0.1627"
"20.6000","3.0463","0.1631"
"20.7000","3.0545","0.1640"
"20.8000","3.0627","0.1642"
"20.9000","3.0713","0.1645"
"21.0000","3.0795","0.1653"
"21.1000","3.0878","0.1666"
"21.2000","3.0962","0.1669"
"21.3000","3.1044","0.1677"
"21.4000","3.1128","0.1679"
"21.5000","3.1211","0.1685"
"21.6000","3.1296","0.1694"
"21.7000","3.1379","0.1698"
"21.8000","3.1462","0.1701"
"21.9000","3.1546","0.1708"
"22.0000","3.1628","0.1717"
"22.1000","3.1711","0.1720"
"22.2000","3.1795","0.1728"
"22.3000","3.1878","0.1734"
"22.4000","3.1962","0.1737"
"22.5000","3.2044","0.1744"
"22.6000","3.2129","0.1749"
"22.7000","3.2212","0.1752"
"22.8000","3.2294","0.1762"
"22.9000","3.2379","0.1765"
"23.0000","3.2462","0.1773"
"23.1000","3.2545","0.1773"
"23.2000","3.2629","0.1782"
"23.3000","3.2712","0.1787"
"23.4000","3.2796","0.1794"
"23.5000","3.2878","0.1800"
"23.6000","3.2963","0.1806"
"23.7000","3.3045","0.1807"
"23.8000","3.3127","0.1816"
"23.9000","3.3213","0.1821"
"24.0000","3.3295","0.1825"
"24.1000","3.3378","0.1833"
"24.2000","3.3461","0.1840"
"24.3000","3.3544","0.1842"
"24.4000","3.3628","0.1846"
"24.5000","3.3711","0.1852"
"24.6000","3.3796","0.1859"
"24.7000","3.3879","0.1864"
"24.8000","3.3962","0.1866"
"24.9000","3.4046","0.1873"
"25.0000","3.4128","0.1883"
"25.1000","3.4212","0.1886"
"25.2000","3.4294","0.1891"
"25.3000","3.4378","0.1895"
"25.4000","3.4462","0.1902"
"25.5000","3.4544","0.1909"
"25.6000","3.4629","0.1911"
"25.7000","3.4712","0.1914"
"25.8000","3.4794","0.1923"
"25.9000","3.4879","0.1928"
"26.0000","3.4962","0.1932"
"26.1000","3.5046","0.1939"
"26.2000","3.5129","0.1945"
"26.3000","3.5213","0.1949"
"26.4000","3.5296","0.1955"
"26.5000","3.5378","0.1958"
"26.6000","3.5463","0.1963"
"26.7000","3.5545","0.1968"
"26.8000","3.5628","0.1974"
"26.9000","3.5712","0.1981"
"27.0000","3.5794","0.1986"
"27.1000","3.5878","0.1990"
"27.2000","3.5962","0.1995"
"27.3000","3.6044","0.2001"
"27.4000","3.6128","0.2006"
"27.5000","3.6211","0.2013"
"27.6000","3.6296","0.2014"
"27.7000","3.6379","0.2018"
"27.8000","3.6461","0.2022"
"27.9000","3.6546","0.2032"
"28.0000","3.6628","0.2032"
"28.1000","3.6712","0.2042"
"28.2000","3.6795","0.2047"
"28.3000","3.6879","0.2049"
"28.4000","3.6961","0.2053"
"28.5000","3.7044","0.2061"
"28.6000","3.7129","0.2062"
"28.7000","3.7212","0.2069"
"28.8000","3.7294","0.2079"
"28.9000","3.7379","0.2084"
"29.0000","3.7462","0.2086"
"29.1000","3.7546","0.2090"
"29.2000","3.7629","0.2102"
"29.3000","3.7713","0.2099"
"29.4000","3.7795","0.2108"
"29.5000","3.7878","0.2113"
"29.6000","3.7963","0.2111"
"29.7000","3.8045","0.2121"
"29.8000","3.8127","0.2124"
"29.9000","3.8212","0.2129"
"30.0000","3.8294","0.2132"
"30.1000","3.8378","0.2139"
"30.2000","3.8461","0.2144"
"30.3000","3.8544","0.2150"
"30.4000","3.8628","0.2153"
"30.5000","3.8711","0.2158"
"30.6000","3.8796","0.2162"
"30.7000","3.8879","0.2166"
"30.8000","3.8962","0.2170"
"30.9000","3.9046","0.2177"
"31.0000","3.9129","0.2183"
"31.1000","3.9212","0.2187"
"31.2000","3.9295","0.2192"
"31.3000","3.9378","0.2194"
"31.4000","3.9462","0.2202"
"31.5000","3.9544","0.2207"
"31.6000","3.9629","0.2209"
"31.7000","3.9711","0.2213"
"31.8000","3.9793","0.2219"
"31.9000","3.9879","0.2226"
"32.0000","3.9962","0.2227"
"32.1000","4.0046","0.2233"
"32.2000","4.0129","0.2240"
"32.3000","4.0213","0.2245"
"32.4000","4.0296","0.2250"
"32.5000","4.0378","0.2253"
"32.6000","4.0463","0.2258"
"32.7000","4.0545","0.2262"
"32.8000","4.0628","0.2266"
"32.9000","4.0712","0.2269"
"33.0000","4.0795","0.2274"
"33.1000","4.0878","0.2278"
"33.2000","4.0961","0.2281"
"33.3000","4.1044","0.2288"
"33.4000","4.1128","0.2292"
"33.5000","4.1211","0.2298"
"33.6000","4.1296","0.2303"
"33.7000","4.1379","0.2305"
"33.8000","4.1461","0.2306"
"33.9000","4.1546","0.2315"
"34.0000","4.1628","0.2320"
"34.1000","4.1712","0.2324"
"34.2000","4.1795","0.2331"
"34.3000","4.1878","0.2333"
"34.4000","4.1962","0.2338"
"34.5000","4.2044","0.2343"
"34.6000","4.2129","0.2347"
"34.7000","4.2212","0.2349"
"34.8000","4.2294","0.2357"
"34.9000","4.2379","0.2362"
"35.0000","4.2462","0.2364"
"35.1000","4.2546","0.2367"
"35.2000","4.2629","0.2371"
"35.3000","4.2713","0.2378"
"35.4000","4.2795","0.2383"
"35.5000","4.2878","0.2385"
"35.6000","4.2963","0.2390"
"35.7000","4.3045","0.2397"
"35.8000","4.3128","0.2400"
"35.9000","4.3212","0.2403"
"36.0000","4.3295","0.2409"
"36.1000","4.3378","0.2413"
"36.2000","4.3462","0.2415"
"36.3000","4.3545","0.2421"
"36.4000","4.3628","0.2423"
"36.5000","4.3711","0.2427"
"36.6000","4.3796","0.2432"
"36.7000","4.3879","0.2436"
"36.8000","4.3961","0.2441"
"36.9000","4.4046","0.2446"
"37.0000","4.4128","0.2454"
"37.1000","4.4212","0.2453"
"37.2000","4.4295","0.2457"
"37.3000","4.4379","0.2464"
"37.4000","4.4462","0.2464"
"37.5000","4.4544","0.2470"
"37.6000","4.4629","0.2473"
"37.7000","4.4712","0.2477"
"37.8000","4.4794","0.2483"
"37.9000","4.4879","0.2490"
"38.0000","4.4962","0.2488"
"38.1000","4.5045","0.2494"
"38.2000","4.5129","0.2504"
"38.3000","4.5213","0.2504"
"38.4000","4.5295","0.2507"
"38.5000","4.5378","0.2514"
"38.6000","4.5463","0.2520"
"38.7000","4.5545","0.2520"
"38.8000","4.5627","0.2522"
"38.9000","4.5712","0.2528"
"39.0000","4.5795","0.2533"
"39.1000","4.5878","0.2538"
"39.2000","4.5961","0.2541"
"39.3000","4.6044","0.2547"
"39.4000","4.6128","0.2548"
"39.5000","4.6211","0.2549"
"39.6000","4.6296","0.2553"
"39.7000","4.6378","0.2557"
"39.8000","4.6461","0.2556"
"39.9000","4.6546","0.2565"
"40.0000","4.6628","0.2570"
"40.1000","4.6712","0.2574"
"40.2000","4.6794","0.2579"
"40.3000","4.6878","0.2582"
"40.4000","4.6962","0.2590"
"40.5000","4.7044","0.2594"
"40.6000","4.7129","0.2595"
"40.7000","4.7211","0.2595"
"40.8000","4.7294","0.2604"
"40.9000","4.7379","0.2608"
"41.0000","4.7463","0.2612"
"41.1000","4.7546","0.2616"
"41.2000","4.7629","0.2619"
"41.3000","4.7713","0.2620"
"41.4000","4.7796","0.2627"
"41.5000","4.7878","0.2629"
"41.6000","4.7963","0.2635"
"41.7000","4.8046","0.2639"
"41.8000","4.8127","0.2637"
"41.9000","4.8213","0.2644"
"42.0000","4.8295","0.2647"
"42.1000","4.8378","0.2653"
"42.2000","4.8462","0.2658"
"42.3000","4.8544","0.2659"
"42.4000","4.8628","0.2663"
"42.5000","4.8711","0.2667"
"42.6000","4.8796","0.2669"
"42.7000","4.8879","0.2672"
"42.8000","4.8962","0.2675"
"42.9000","4.9046","0.2683"
"43.0000","4.9128","0.2685"
"43.1000","4.9212","0.2689"
"43.2000","4.9296","0.2693"
"43.3000","4.9379","0.2699"
"43.4000","4.9461","0.2702"
"43.5000","4.9544","0.2705"
"43.6000","4.9629","0.2706"
"43.7000","4.9713","0.2711"
"43.8000","4.9794","0.2718"
"43.9000","4.9879","0.2722"
"44.0000","4.9962","0.2721"
"44.1000","5.0046","0.2726"
"44.2000","5.0129","0.2734"
"44.3000","5.0212","0.2733"
"44.4000","5.0296","0.2740"
"44.5000","5.0378","0.2743"
"44.6000","5.0463","0.2747"
"44.7000","5.0545","0.2752"
"44.8000","5.0627","0.2755"
"44.9000","5.0713","0.2759"
"45.0000","5.0794","0.2760"
"45.1000","5.0877","0.2764"
"45.2000","5.0961","0.2768"
"45.3000","5.1044","0.2770"
"45.4000","5.1128","0.2773"
"45.5000","5.1211","0.2780"
"45.6000","5.1296","0.2785"
"45.7000","5.1379","0.2789"
"45.8000","5.1462","0.2785"
"45.9000","5.1546","0.2792"
"46.0000","5.1628","0.2798"
"46.1000","5.1711","0.2801"
"46.2000","5.1795","0.2807"
"46.3000","5.1878","0.2807"
"46.4000","5.1962","0.2811"
"46.5000","5.2044","0.2817"
"46.6000","5.2129","0.2820"
"46.7000","5.2212","0.2823"
"46.8000","5.2294","0.2826"
"46.9000","5.2379","0.2831"
"47.0000","5.2462","0.2837"
"47.1000","5.2546","0.2838"
"47.2000","5.2629","0.2845"
"47.3000","5.2713","0.2844"
"47.4000","5.2796","0.2848"
"47.5000","5.2878","0.2852"
"47.6000","5.2963","0.2855"
"47.7000","5.3044","0.2862"
"47.8000","5.3128","0.2862"
"47.9000","5.3213","0.2863"
"48.0000","5.3295","0.2869"
"48.1000","5.3378","0.2873"
"48.2000","5.3461","0.2878"
"48.3000","5.3544","0.2881"
"48.4000","5.3628","0.2883"
"48.5000","5.3711","0.2886"
"48.6000","5.3796","0.2890"
"48.7000","5.3879","0.2895"
"48.8000","5.3961","0.2897"
"48.9000","5.4046","0.2899"
"49.0000","5.4128","0.2904"
"49.1000","5.4212","0.2909"
"49.2000","5.4296","0.2913"
"49.3000","5.4378","0.2921"
"49.4000","5.4462","0.2917"
"49.5000","5.4544","0.2921"
"49.6000","5.4629","0.2928"
"49.7000","5.4713","0.2932"
"49.8000","5.4794","0.2933"
"49.9000","5.4879","0.2940"
"50.0000","5.4962","0.2943"
"50.1000","5.5046","0.2944"
"50.2000","5.5129","0.2949"
"50.3000","5.5213","0.2948"
"50.4000","5.5295","0.2956"
"50.5000","5.5378","0.2956"
"50.6000","5.5463","0.2961"
"50.7000","5.5545","0.2964"
"50.8000","5.5628","0.2971"
"50.9000","5.5713","0.2970"
"51.0000","5.5794","0.2974"
"51.1000","5.5877","0.2979"
"51.2000","5.5961","0.2982"
"51.3000","5.6044","0.2984"
"51.4000","5.6128","0.2989"
"51.5000","5.6211","0.2991"
"51.6000","5.6296","0.2994"
"51.7000","5.6379","0.3002"
"51.8000","5.6462","0.3000"
"51.9000","5.6546","0.3007"
"52.0000","5.6628","0.3009"
"52.1000","5.6712","0.3014"
"52.2000","5.6796","0.3015"
"52.3000","5.6879","0.3018"
"52.4000","5.6962","0.3019"
"52.5000","5.7044","0.3023"
"52.6000","5.7129","0.3027"
"52.7000","5.7212","0.3030"
"52.8000","5.7294","0.3036"
"52.9000","5.7379","0.3041"
"53.0000","5.7462","0.3042"
"53.1000","5.7545","0.3043"
"53.2000","5.7629","0.3051"
"53.3000","5.7712","0.3049"
"53.4000","5.7796","0.3055"
"53.5000","5.7878","0.3063"
"53.6000","5.7962","0.3062"
"53.7000","5.8045","0.3062"
"53.8000","5.8128","0.3064"
"53.9000","5.8213","0.3071"
"54.0000","5.8294","0.3071"
"54.1000","5.8377","0.3077"
"54.2000","5.8461","0.3080"
"54.3000","5.8545","0.3080"
"54.4000","5.8628","0.3083"
"54.5000","5.8711","0.3089"
"54.6000","5.8796","0.3091"
"54.7000","5.8878","0.3094"
"54.8000","5.8961","0.3093"
"54.9000","5.9046","0.3099"
"55.0000","5.9129","0.3101"
"55.1000","5.9212","0.3107"
"55.2000","5.9295","0.3106"
"55.3000","5.9378","0.3111"
"55.4000","5.9462","0.3113"
"55.5000","5.9544","0.3121"
"55.6000","5.9629","0.3121"
"55.7000","5.9712","0.3122"
"55.8000","5.9793","0.3125"
"55.9000","5.9879","0.3130"
"56.0000","5.9962","0.3133"
"56.1000","6.0046","0.3137"
"56.2000","6.0129","0.3139"
"56.3000","6.0212","0.3140"
"56.4000","6.0296","0.3146"
"56.5000","6.0378","0.3151"
"56.6000","6.0462","0.3148"
"56.7000","6.0545","0.3153"
"56.8000","6.0627","0.3160"
"56.9000","6.0712","0.3157"
"57.0000","6.0795","0.3161"
"57.1000","6.0878","0.3166"
"57.2000","6.0961","0.3167"
"57.3000","6.1044","0.3168"
"57.4000","6.1128","0.3174"
"57.5000","6.1211","0.3178"
"57.6000","6.1296","0.3179"
"57.7000","6.1379","0.3180"
"57.8000","6.1461","0.3181"
"57.9000","6.1546","0.3187"
"58.0000","6.1628","0.3188"
"58.1000","6.1712","0.3190"
"58.2000","6.1795","0.3197"
"58.3000","6.1879","0.3197"
"58.4000","6.1961","0.3204"
"58.5000","6.2044","0.3202"
"58.6000","6.2129","0.3207"
"58.7000","6.2212","0.3210"
"58.8000","6.2294","0.3210"
"58.9000","6.2379","0.3217"
"59.0000","6.2462","0.3216"
"59.1000","6.2546","0.3218"
"59.2000","6.2629","0.3225"
"59.3000","6.2713","0.3226"
"59.4000","6.2796","0.3229"
"59.5000","6.2878","0.3233"
"59.6000","6.2962","0.3237"
"59.7000","6.3045","0.3237"
"59.8000","6.3128","0.3239"
"59.9000","6.3212","0.3241"
"60.0000","6.3294","0.3243"
"60.1000","6.3378","0.3247"
"60.2000","6.3461","0.3252"
"60.3000","6.3545","0.3253"
"60.4000","6.3628","0.3256"
"60.5000","6.3711","0.3258"
"60.6000","6.3796","0.3261"
"60.7000","6.3879","0.3265"
"60.8000","6.3962","0.3265"
"60.9000","6.4046","0.3268"
"61.0000","6.4128","0.3272"
"61.1000","6.4212","0.3274"
"61.2000","6.4295","0.3277"
"61.3000","6.4379","0.3278"
"61.4000","6.4462","0.3281"
"61.5000","6.4544","0.3283"
"61.6000","6.4629","0.3286"
"61.7000","6.4712","0.3283"
"61.8000","6.4794","0.3294"
"61.9000","6.4879","0.3297"
"62.0000","6.4962","0.3300"
"62.1000","6.5046","0.3298"
"62.2000","6.5129","0.3304"
"62.3000","6.5213","0.3309"
"62.4000","6.5296","0.3310"
"62.5000","6.5378","0.3311"
"62.6000","6.5463","0.3311"
"62.7000","6.5545","0.3315"
"62.8000","6.5628","0.3320"
"62.9000","6.5712","0.3324"
"63.0000","6.5795","0.3322"
"63.1000","6.5878","0.3330"
"63.2000","6.5961","0.3329"
"63.3000","6.6044","0.3334"
"63.4000","6.6128","0.3334"
"63.5000","6.6211","0.3337"
"63.6000","6.6296","0.3338"
"63.7000","6.6379","0.3343"
"63.8000","6.6461","0.3343"
"63.9000","6.6546","0.3346"
"64.0000","6.6628","0.3351"
"64.1000","6.6712","0.3351"
"64.2000","6.6795","0.3351"
"64.3000","6.6878","0.3357"
"64.4000","6.6962","0.3358"
"64.5000","6.7044","0.3362"
"64.6000","6.7129","0.3365"
"64.7000","6.7211","0.3364"
"64.8000","6.7294","0.3368"
"64.9000","6.7379","0.3375"
"65.0000","6.7462","0.3377"
"65.1000","6.7546","0.3373"
"65.2000","6.7629","0.3383"
"65.3000","6.7713","0.3382"
"65.4000","6.7795","0.3385"
"65.5000","6.7877","0.3385"
"65.6000","6.7963","0.3389"
"65.7000","6.8046","0.3393"
"65.8000","6.8128","0.3393"
"65.9000","6.8212","0.3394"
"66.0000","6.8294","0.3395"
"66.1000","6.8378","0.3401"
"66.2000","6.8462","0.3404"
"66.3000","6.8545","0.3404"
"66.4000","6.8628","0.3407"
"66.5000","6.8711","0.3410"
"66.6000","6.8796","0.3413"
"66.7000","6.8879","0.3416"
"66.8000","6.8961","0.3414"
"66.9000","6.9046","0.3420"
"67.0000","6.9128","0.3422"
"67.1000","6.9212","0.3426"
"67.2000","6.9295","0.3428"
"67.3000","6.9379","0.3429"
"67.4000","6.9462","0.3434"
"67.5000","6.9544","0.3434"
"67.6000","6.9628","0.3439"
"67.7000","6.9711","0.3439"
"67.8000","6.9794","0.3445"
"67.9000","6.9879","0.3444"
"68.0000","6.9962","0.3449"
"68.1000","7.0045","0.3448"
"68.2000","7.0129","0.3450"
"68.3000","7.0213","0.3454"
"68.4000","7.0295","0.3457"
"68.5000","7.0378","0.3459"
"68.6000","7.0462","0.3461"
"68.7000","7.0545","0.3463"
"68.8000","7.0628","0.3466"
"68.9000","7.0712","0.3466"
"69.0000","7.0794","0.3469"
"69.1000","7.0878","0.3474"
"69.2000","7.0961","0.3471"
"69.3000","7.1044","0.3477"
"69.4000","7.1128","0.3478"
"69.5000","7.1211","0.3481"
"69.6000","7.1296","0.3485"
"69.7000","7.1379","0.3485"
"69.8000","7.1462","0.3487"
"69.9000","7.1546","0.3490"
"70.0000","7.1628","0.3494"
"70.1000","7.1712","0.3497"
"70.2000","7.1795","0.3497"
"70.3000","7.1878","0.3500"
"70.4000","7.1962","0.3502"
"70.5000","7.2044","0.3506"
"70.6000","7.2129","0.3507"
"70.7000","7.2212","0.3509"
"70.8000","7.2294","0.3512"
"70.9000","7.2379","0.3512"
"71.0000","7.2462","0.3516"
"71.1000","7.2546","0.3517"
"71.2000","7.2629","0.3524"
"71.3000","7.2713","0.3520"
"71.4000","7.2796","0.3528"
"71.5000","7.2878","0.3530"
"71.6000","7.2963","0.3531"
"71.7000","7.3045","0.3533"
"71.8000","7.3127","0.3534"
"71.9000","7.3212","0.3533"
"72.0000","7.3295","0.3538"
"72.1000","7.3378","0.3543"
"72.2000","7.3461","0.3544"
"72.3000","7.3544","0.3544"
"72.4000","7.3628","0.3550"
"72.5000","7.3711","0.3549"
"72.6000","7.3796","0.3551"
"72.7000","7.3879","0.3553"
"72.8000","7.3961","0.3555"
"72.9000","7.4046","0.3561"
"73.0000","7.4128","0.3564"
"73.1000","7.4212","0.3565"
"73.2000","7.4295","0.3563"
"73.3000","7.4379","0.3569"
"73.4000","7.4462","0.3569"
"73.5000","7.4544","0.3572"
"73.6000","7.4629","0.3575"
"73.7000","7.4712","0.3576"
"73.8000","7.4794","0.3578"
"73.9000","7.4879","0.3583"
"74.0000","7.4962","0.3584"
"74.1000","7.5046","0.3581"
"74.2000","7.5129","0.3590"
"74.3000","7.5212","0.3589"
"74.4000","7.5296","0.3593"
"74.5000","7.5378","0.3593"
"74.6000","7.5463","0.3597"
"74.7000","7.5545","0.3599"
"74.8000","7.5627","0.3602"
"74.9000","7.5712","0.3602"
"75.0000","7.5795","0.3603"
"75.1000","7.5878","0.3609"
"75.2000","7.5962","0.3608"
"75.3000","7.6045","0.3610"
"75.4000","7.6128","0.3612"
"75.5000","7.6211","0.3615"
"75.6000","7.6296","0.3616"
"75.7000","7.6379","0.3622"
"75.8000","7.6462","0.3619"
"75.9000","7.6546","0.3622"
"76.0000","7.6628","0.3624"
"76.1000","7.6711","0.3628"
"76.2000","7.6794","0.3629"
"76.3000","7.6879","0.3630"
"76.4000","7.6962","0.3632"
"76.5000","7.7044","0.3636"
"76.6000","7.7129","0.3638"
"76.7000","7.7211","0.3639"
"76.8000","7.7294","0.3641"
"76.9000","7.7379","0.3646"
"77.0000","7.7462","0.3644"
"77.1000","7.7546","0.3648"
"77.2000","7.7629","0.3652"
"77.3000","7.7712","0.3655"
"77.4000","7.7796","0.3652"
"77.5000","7.7878","0.3654"
"77.6000","7.7963","0.3654"
"77.7000","7.8045","0.3658"
"77.8000","7.8127","0.3661"
"77.9000","7.8213","0.3661"
"78.0000","7.8295","0.3665"
"78.1000","7.8378","0.3669"
"78.2000","7.8462","0.3669"
"78.3000","7.8544","0.3669"
"78.4000","7.8628","0.3675"
"78.5000","7.8711","0.3673"
"78.6000","7.8796","0.3678"
"78.7000","7.8879","0.3680"
"78.8000","7.8961","0.3679"
"78.9000","7.9046","0.3683"
"79.0000","7.9128","0.3685"
"79.1000","7.9212","0.3689"
"79.2000","7.9295","0.3688"
"79.3000","7.9378","0.3689"
"79.4000","7.9462","0.3692"
"79.5000","7.9544","0.3694"
"79.6000","7.9629","0.3697"
"79.7000","7.9711","0.3695"
"79.8000","7.9794","0.3700"
"79.9000","7.9878","0.3698"
"80.0000","7.9962","0.3704"
"80.1000","8.0046","0.3704"
"80.2000","8.0129","0.3708"
"80.3000","8.0213","0.3712"
"80.4000","8.0296","0.3714"
"80.5000","8.0378","0.3714"
"80.6000","8.0463","0.3713"
"80.7000","8.0545","0.3718"
"80.8000","8.0627","0.3717"
"80.9000","8.0712","0.3719"
"81.0000","8.0795","0.3719"
"81.1000","8.0878","0.3728"
"81.2000","8.0962","0.3726"
"81.3000","8.1044","0.3728"
"81.4000","8.1128","0.3731"
"81.5000","8.1211","0.3731"
"81.6000","8.1296","0.3731"
"81.7000","8.1379","0.3732"
"81.8000","8.1462","0.3735"
"81.9000","8.1546","0.3739"
"82.0000","8.1628","0.3741"
"82.1000","8.1712","0.3741"
"82.2000","8.1795","0.3742"
"82.3000","8.1878","0.3745"
"82.4000","8.1962","0.3745"
"82.5000","8.2044","0.3749"
"82.6000","8.2129","0.3751"
"82.7000","8.2212","0.3751"
"82.8000","8.2294","0.3754"
"82.9000","8.2379","0.3756"
"83.0000","8.2462","0.3760"
"83.1000","8.2545","0.3760"
"83.2000","8.2629","0.3762"
"83.3000","8.2713","0.3766"
"83.4000","8.2795","0.3761"
"83.5000","8.2878","0.3766"
"83.6000","8.2963","0.3766"
"83.7000","8.3045","0.3771"
"83.8000","8.3128","0.3771"
"83.9000","8.3213","0.3774"
"84.0000","8.3295","0.3772"
"84.1000","8.3378","0.3778"
"84.2000","8.3461","0.3778"
"84.3000","8.3545","0.3778"
"84.4000","8.3628","0.3780"
"84.5000","8.3711","0.3782"
"84.6000","8.3796","0.3782"
"84.7000","8.3879","0.3787"
"84.8000","8.3961","0.3788"
"84.9000","8.4046","0.3790"
"85.0000","8.4128","0.3793"
"85.1000","8.4212","0.3795"
"85.2000","8.4295","0.3796"
"85.3000","8.4378","0.3796"
"85.4000","8.4462","0.3796"
"85.5000","8.4544","0.3802"
"85.6000","8.4629","0.3802"
"85.7000","8.4712","0.3802"
"85.8000","8.4794","0.3807"
"85.9000","8.4879","0.3809"
"86.0000","8.4962","0.3808"
"86.1000","8.5046","0.3810"
"86.2000","8.5129","0.3813"
"86.3000","8.5212","0.3812"
"86.4000","8.5296","0.3816"
"86.5000","8.5378","0.3817"
"86.6000","8.5463","0.3813"
"86.7000","8.5545","0.3819"
"86.8000","8.5627","0.3825"
"86.9000","8.5712","0.3824"
"87.0000","8.5795","0.3825"
"87.1000","8.5878","0.3827"
"87.2000","8.5961","0.3824"
"87.3000","8.6044","0.3830"
"87.4000","8.6128","0.3833"
"87.5000","8.6211","0.3833"
"87.6000","8.6296","0.3837"
"87.7000","8.6379","0.3838"
"87.8000","8.6462","0.3840"
"87.9000","8.6546","0.3842"
"88.0000","8.6629","0.3840"
"88.1000","8.6712","0.3844"
"88.2000","8.6795","0.3844"
"88.3000","8.6879","0.3846"
"88.4000","8.6962","0.3848"
"88.5000","8.7044","0.3853"
"88.6000","8.7129","0.3856"
"88.7000","8.7212","0.3855"
"88.8000","8.7294","0.3854"
"88.9000","8.7379","0.3859"
"89.0000","8.7462","0.3857"
"89.1000","8.7545","0.3859"
"89.2000","8.7629","0.3861"
"89.3000","8.7712","0.3863"
"89.4000","8.7796","0.3867"
"89.5000","8.7878","0.3867"
"89.6000","8.7963","0.3869"
"89.7000","8.8046","0.3870"
"89.8000","8.8128","0.3873"
"89.9000","8.8213","0.3872"
"90.0000","8.8294","0.3874"
"90.1000","8.8378","0.3875"
"90.2000","8.8462","0.3877"
"90.3000","8.8545","0.3876"
"90.4000","8.8628","0.3877"
"90.5000","8.8711","0.3882"
"90.6000","8.8796","0.3882"
"90.7000","8.8879","0.3889"
"90.8000","8.8962","0.3883"
"90.9000","8.9046","0.3889"
"91.0000","8.9128","0.3889"
"91.1000","8.9212","0.3893"
"91.2000","8.9295","0.3892"
"91.3000","8.9379","0.3894"
"91.4000","8.9462","0.3897"
"91.5000","8.9544","0.3896"
"91.6000","8.9629","0.3895"
"91.7000","8.9711","0.3899"
"91.8000","8.9794","0.3900"
"91.9000","8.9879","0.3902"
"92.0000","8.9963","0.3904"
"92.1000","9.0046","0.3902"
"92.2000","9.0128","0.3913"
"92.3000","9.0212","0.3907"
"92.4000","9.0296","0.3912"
"92.5000","9.0378","0.3910"
"92.6000","9.0463","0.3915"
"92.7000","9.0545","0.3916"
"92.8000","9.0627","0.3917"
"92.9000","9.0713","0.3917"
"93.0000","9.0795","0.3919"
"93.1000","9.0878","0.3924"
"93.2000","9.0961","0.3923"
"93.3000","9.1044","0.3928"
"93.4000","9.1128","0.3925"
"93.5000","9.1211","0.3927"
"93.6000","9.1296","0.3926"
"93.7000","9.1379","0.3932"
"93.8000","9.1461","0.3934"
"93.9000","9.1546","0.3934"
"94.0000","9.1628","0.3936"
"94.1000","9.1712","0.3938"
"94.2000","9.1795","0.3937"
"94.3000","9.1878","0.3940"
"94.4000","9.1962","0.3941"
"94.5000","9.2044","0.3942"
"94.6000","9.2129","0.3945"
"94.7000","9.2212","0.3943"
"94.8000","9.2294","0.3947"
"94.9000","9.2378","0.3949"
"95.0000","9.2462","0.3949"
"95.1000","9.2546","0.3951"
"95.2000","9.2629","0.3956"
"95.3000","9.2712","0.3957"
"95.4000","9.2795","0.3957"
"95.5000","9.2878","0.3956"
"95.6000","9.2962","0.3961"
"95.7000","9.3046","0.3960"
"95.8000","9.3128","0.3962"
"95.9000","9.3212","0.3962"
"96.0000","9.3294","0.3963"
"96.1000","9.3378","0.3965"
"96.2000","9.3462","0.3968"
"96.3000","9.3545","0.3967"
"96.4000","9.3628","0.3970"
"96.5000","9.3711","0.3971"
"96.6000","9.3796","0.3971"
"96.7000","9.3879","0.3972"
"96.8000","9.3961","0.3970"
"96.9000","9.4046","0.3980"
"97.0000","9.4128","0.3979"
"97.1000","9.4212","0.3980"
"97.2000","9.4295","0.3982"
"97.3000","9.4379","0.3983"
"97.4000","9.4462","0.3984"
"97.5000","9.4544","0.3982"
"97.6000","9.4629","0.3983"
"97.7000","9.4712","0.3984"
"97.8000","9.4794","0.3988"
"97.9000","9.4879","0.3995"
"98.0000","9.4962","0.3996"
"98.1000","9.5045","0.3994"
"98.2000","9.5129","0.3998"
"98.3000","9.5213","0.3998"
"98.4000","9.5296","0.3996"
"98.5000","9.5378","0.4000"
"98.6000","9.5462","0.3999"
"98.7000","9.5545","0.3999"
"98.8000","9.5628","0.4004"
"98.9000","9.5713","0.4003"
"99.0000","9.5795","0.4006"
"99.1000","9.5878","0.4006"
"99.2000","9.5961","0.4004"
"99.3000","9.6044","0.4008"
"99.4000","9.6129","0.4011"
"99.5000","9.6211","0.4012"
"99.6000","9.6296","0.4017"
"99.7000","9.6379","0.4016"
"99.8000","9.6462","0.4010"
"99.9000","9.6546","0.4015"
"100.0000","9.6628","0.4019"
"100.1000","9.6712","0.4019"
"100.2000","9.6795","0.4024"
"100.3000","9.6878","0.4022"
"100.4000","9.6962","0.4021"
"100.5000","9.7044","0.4025"
"100.6000","9.7129","0.4028"
"100.7000","9.7211","0.4025"
"100.8000","9.7294","0.4027"
"100.9000","9.7379","0.4034"
"101.0000","9.7463","0.4035"
"101.1000","9.7546","0.4034"
"101.2000","9.7629","0.4035"
"101.3000","9.7712","0.4035"
"101.4000","9.7796","0.4035"
"101.5000","9.7878","0.4038"
"101.6000","9.7963","0.4039"
"101.7000","9.8045","0.4041"
"101.8000","9.8127","0.4041"
"101.9000","9.8213","0.4041"
"102.0000","9.8295","0.4043"
"102.1000","9.8378","0.4047"
"102.2000","9.8461","0.4048"
"102.3000","9.8544","0.4047"
"102.4000","9.8628","0.4051"
"102.5000","9.8711","0.4050"
"102.6000","9.8796","0.4048"
"102.7000","9.8879","0.4051"
"102.8000","9.8962","0.4053"
"102.9000","9.9046","0.4058"
"103.0000","9.9129","0.4056"
"103.1000","9.9212","0.4058"
"103.2000","9.9295","0.4061"
"103.3000","9.9378","0.4062"
"103.4000","9.9462","0.4061"
"103.5000","9.9544","0.4063"
"103.6000","9.9629","0.4068"
"103.7000","9.9712","0.4061"
"103.8000","9.9794","0.4066"
"103.9000","9.9878","0.4069"
"104.0000","9.9962","0.4072"
"104.1000","10.0046","0.4069"
"104.2000","10.0129","0.4071"
"104.3000","10.0213","0.4076"
"104.4000","10.0296","0.4074"
"104.5000","10.0378","0.4075"
"104.6000","10.0463","0.4076"
"104.7000","10.0545","0.4079"
"104.8000","10.0628","0.4078"
"104.9000","10.0712","0.4077"
"105.0000","10.0794","0.4080"
"105.1000","10.0878","0.4081"
"105.2000","10.0962","0.4081"
"105.3000","10.1044","0.4081"
"105.4000","10.1128","0.4083"
"105.5000","10.1211","0.4088"
"105.6000","10.1296","0.4084"
"105.7000","10.1378","0.4087"
"105.8000","10.1461","0.4084"
"105.9000","10.1546","0.4090"
"106.0000","10.1629","0.4090"
"106.1000","10.1712","0.4091"
"106.2000","10.1795","0.4092"
"106.3000","10.1878","0.4092"
"106.4000","10.1962","0.4096"
"106.5000","10.2044","0.4095"
"106.6000","10.2128","0.4101"
"106.7000","10.2211","0.4098"
"106.8000","10.2294","0.4098"
"106.9000","10.2379","0.4105"
"107.0000","10.2462","0.4103"
"107.1000","10.2545","0.4102"
"107.2000","10.2629","0.4107"
"107.3000","10.2713","0.4105"
"107.4000","10.2796","0.4107"
"107.5000","10.2878","0.4107"
"107.6000","10.2963","0.4108"
"107.7000","10.3045","0.4108"
"107.8000","10.3127","0.4111"
"107.9000","10.3212","0.4110"
"108.0000","10.3295","0.4109"
"108.1000","10.3378","0.4117"
"108.2000","10.3461","0.4116"
"108.3000","10.3544","0.4119"
"108.4000","10.3628","0.4115"
"108.5000","10.3711","0.4115"
"108.6000","10.3796","0.4118"
"108.7000","10.3879","0.4121"
"108.8000","10.3961","0.4120"
"108.9000","10.4046","0.4122"
"109.0000","10.4129","0.4121"
"109.1000","10.4212","0.4123"
"109.2000","10.4295","0.4125"
"109.3000","10.4378","0.4125"
"109.4000","10.4462","0.4126"
"109.5000","10.4544","0.4129"
"109.6000","10.4629","0.4129"
"109.7000","10.4712","0.4128"
"109.8000","10.4794","0.4126"
"109.9000","10.4879","0.4126"
"110.0000","10.4962","0.4130"
"110.1000","10.5046","0.4125"
"110.2000","10.5129","0.4134"
"110.3000","10.5213","0.4132"
"110.4000","10.5296","0.4133"
"110.5000","10.5378","0.4135"
"110.6000","10.5463","0.4131"
"110.7000","10.5545","0.4137"
"110.8000","10.5628","0.4135"
"110.9000","10.5713","0.4134"
"111.0000","10.5795","0.4136"
"111.1000","10.5878","0.4140"
"111.2000","10.5962","0.4139"
"111.3000","10.6044","0.4139"
"111.4000","10.6128","0.4141"
"111.5000","10.6211","0.4141"
"111.6000","10.6296","0.4144"
"111.7000","10.6379","0.4150"
"111.8000","10.6462","0.4145"
"111.9000","10.6546","0.4146"
"112.0000","10.6628","0.4152"
"112.1000","10.6712","0.4148"
"112.2000","10.6795","0.4150"
"112.3000","10.6878","0.4152"
"112.4000","10.6962","0.4149"
"112.5000","10.7044","0.4152"
"112.6000","10.7129","0.4152"
"112.7000","10.7212","0.4151"
"112.8000","10.7294","0.4151"
"112.9000","10.7379","0.4157"
"113.0000","10.7462","0.4158"
"113.1000","10.7545","0.4152"
"113.2000","10.7629","0.4162"
"113.3000","10.7713","0.4155"
"113.4000","10.7796","0.4157"
"113.5000","10.7878","0.4158"
"113.6000","10.7963","0.4157"
"113.7000","10.8045","0.4156"
"113.8000","10.8127","0.4157"
"113.9000","10.8212","0.4154"
"114.0000","10.8295","0.4159"
"114.1000","10.8378","0.4158"
"114.2000","10.8461","0.4160"
"114.3000","10.8544","0.4158"
"114.4000","10.8628","0.4160"
"114.5000","10.8711","0.4161"
"114.6000","10.8796","0.4162"
"114.7000","10.8879","0.4161"
"114.8000","10.8962","0.4161"
"114.9000","10.9046","0.4163"
"115.0000","10.9129","0.4164"
"115.1000","10.9212","0.4163"
"115.2000","10.9294","0.4166"
"115.3000","10.9378","0.4167"
"115.4000","10.9462","0.4169"
"115.5000","10.9544","0.4169"
"115.6000","10.9629","0.4170"
"115.7000","10.9712","0.4167"
"115.8000","10.9794","0.4167"
"115.9000","10.9879","0.4173"
"116.0000","10.9962","0.4172"
"116.1000","11.0046","0.4170"
"116.2000","11.0129","0.4174"
"116.3000","11.0212","0.4174"
"116.4000","11.0296","0.4173"
"116.5000","11.0378","0.4172"
"116.6000","11.0463","0.4177"
"116.7000","11.0545","0.4176"
"116.8000","11.0628","0.4176"
"116.9000","11.0713","0.4178"
"117.0000","11.0795","0.4178"
"117.1000","11.0878","0.4182"
"117.2000","11.0962","0.4179"
"117.3000","11.1044","0.4179"
"117.4000","11.1128","0.4177"
"117.5000","11.1211","0.4169"
"117.6000","11.1296","0.4156"
"117.7000","11.1379","0.4159"
"117.8000","11.1462","0.4152"
"117.9000","11.1546","0.4154"
"118.0000","11.1628","0.4150"
"118.1000","11.1712","0.4150"
"118.2000","11.1795","0.4147"
"118.3000","11.1879","0.4146"
"118.4000","11.1962","0.4146"
"118.5000","11.2044","0.4140"
"118.6000","11.2129","0.4141"
"118.7000","11.2212","0.4137"
"118.8000","11.2294","0.4129"
"118.9000","11.2379","0.4123"
"119.0000","11.2462","0.4031"
"119.1000","11.2547","0.2237"
"119.2000","11.2629","0.1339"
"119.3000","11.2712","0.1308"
"119.4000","11.2796","0.1292"
"119.5000","11.2878","0.1279"
"119.6000","11.2963","0.1274"
"119.7000","11.3045","0.1271"
"119.8000","11.3127","0.1272"
"119.9000","11.3212","0.1267"
"120.0000","11.3295","0.1256"
"120.1000","11.3378","0.1255"
"120.2000","11.3461","0.1252"
"120.3000","11.3545","0.1252"
"120.4000","11.3628","0.1247"
"120.5000","11.3711","0.1247"
"120.6000","11.3796","0.1244"
"120.7000","11.3879","0.1246"
"120.8000","11.3962","0.1241"
"120.9000","11.4046","0.1238"
"121.0000","11.4128","0.1227"
"121.1000","11.4211","0.1214"
"121.2000","11.4295","0.1205"
"121.3000","11.4378","0.1201"
"121.4000","11.4462","0.1189"
"121.5000","11.4544","0.1187"
"121.6000","11.4629","0.1178"
"121.7000","11.4711","0.1178"
"121.8000","11.4794","0.1164"
"121.9000","11.4879","0.1162"
"122.0000","11.4961","0.1162"
"122.1000","11.5045","0.1159"
"122.2000","11.5129","0.1160"
"122.3000","11.5212","0.1154"
"122.4000","11.5296","0.1155"
"122.5000","11.5378","0.1145"
"122.6000","11.5463","0.1142"
"122.6740","11.5522","0.1142"