File: flexural/ES100_Trevor_Flexural_Data_4_1.csv
Specimen text inputs : Specimen text input  1,,""

Results Table 1
,Specimen text input  1
"4","b45_f2"

Results Table 2

Time,Displacement,Force
(s),(mm),(kN)
"0.0000","1.6326","0.0202"
"0.0800","1.6413","0.0231"
"0.1600","1.6454","0.0235"
"0.2400","1.6516","0.0244"
"0.3200","1.6581","0.0255"
"0.4000","1.6649","0.0268"
"0.4800","1.6715","0.0277"
"0.5600","1.6781","0.0288"
"0.6400","1.6847","0.0299"
"0.7200","1.6916","0.0313"
"0.8000","1.6982","0.0324"
"0.8800","1.7047","0.0332"
"0.9600","1.7115","0.0344"
"1.0400","1.7182","0.0353"
"1.1200","1.7249","0.0368"
"1.2000","1.7314","0.0380"
"1.2800","1.7382","0.0391"
"1.3600","1.7449","0.0400"
"1.4400","1.7516","0.0413"
"1.5200","1.7582","0.0421"
"1.6000","1.7648","0.0438"
"1.6800","1.7716","0.0449"
"1.7600","1.7781","0.0462"
"1.8400","1.7849","0.0471"
"1.9200","1.7914","0.0480"
"2.0000","1.7982","0.0493"
"2.0800","1.8048","0.0504"
"2.1600","1.8114","0.0516"
"2.2400","1.8182","0.0526"
"2.3200","1.8248","0.0536"
"2.4000","1.8316","0.0553"
"2.4800","1.8381","0.0561"
"2.5600","1.8449","0.0573"
"2.6400","1.8515","0.0588"
"2.7200","1.8582","0.0598"
"2.8000","1.8648","0.0612"
"2.8800","1.8714","0.0624"
"2.9600","1.8782","0.0632"
"3.0400","1.8848","0.0647"
"3.1200","1.8916","0.0659"
"3.2000","1.8981","0.0672"
"3.2800","1.9049","0.0680"
"3.3600","1.9115","0.0692"
"3.4400","1.9181","0.0706"
"3.5200","1.9248","0.0717"
"3.6000","1.9314","0.0729"
"3.6800","1.9382","0.0743"
"3.7600","1.9448","0.0753"
"3.8400","1.9516","0.0762"
"3.9200","1.9583","0.0777"
"4.0000","1.9649","0.0786"
"4.0800","1.9715","0.0803"
"4.1600","1.9781","0.0815"
"4.2400","1.9849","0.0821"
"4.3200","1.9914","0.0837"
"4.4000","1.9982","0.0848"
"4.4800","2.0049","0.0859"
"4.5600","2.0117","0.0876"
"4.6400","2.0182","0.0881"
"4.7200","2.0248","0.0899"
"4.8000","2.0316","0.0909"
"4.8800","2.0382","0.0924"
"4.9600","2.0448","0.0933"
"5.0400","2.0514","0.0944"
"5.1200","2.0583","0.0960"
"5.2000","2.0649","0.0969"
"5.2800","2.0716","0.0983"
"5.3600","2.0781","0.0989"
"5.4400","2.0849","0.1008"
"5.5200","2.0915","0.1019"
"5.6000","2.0981","0.1029"
"5.6800","2.1048","0.1044"
"5.7600","2.1115","0.1056"
"5.8400","2.1183","0.1064"
"5.9200","2.1248","0.1078"
"6.0000","2.1315","0.1090"
"6.0800","2.1382","0.1099"
"6.1600","2.1448","0.1112"
"6.2400","2.1514","0.1130"
"6.3200","2.1581","0.1140"
"6.4000","2.1649","0.1153"
"6.4800","2.1716","0.1163"
"6.5600","2.1782","0.1174"
"6.6400","2.1848","0.1184"
"6.7200","2.1915","0.1198"
"6.8000","2.1982","0.1212"
"6.8800","2.2047","0.1219"
"6.9600","2.2114","0.1233"
"7.0400","2.2182","0.1248"
"7.1200","2.2249","0.1257"
"7.2000","2.2314","0.1269"
"7.2800","2.2382","0.1286"
"7.3600","2.2449","0.1298"
"7.4400","2.2516","0.1306"
"7.5200","2.2582","0.1318"
"7.6000","2.2648","0.1329"
"7.6800","2.2716","0.1339"
"7.7600","2.2782","0.1357"
"7.8400","2.2849","0.1364"
"7.9200","2.2915","0.1379"
"8.0000","2.2983","0.1394"
"8.0800","2.3049","0.1402"
"8.1600","2.3114","0.1416"
"8.2400","2.3181","0.1423"
"8.3200","2.3248","0.1437"
"8.4000","2.3316","0.1450"
"8.4800","2.3381","0.1460"
"8.5600","2.3449","0.1471"
"8.6400","2.3515","0.1486"
"8.7200","2.3582","0.1497"
"8.8000","2.3647","0.1512"
"8.8800","2.3714","0.1524"
"8.9600","2.3783","0.1534"
"9.0400","2.3848","0.1542"
"9.1200","2.3916","0.1559"
"9.2000","2.3981","0.1566"
"9.2800","2.4049","0.1579"
"9.3600","2.4115","0.1592"
"9.4400","2.4181","0.1602"
"9.5200","2.4248","0.1618"
"9.6000","2.4314","0.1630"
"9.6800","2.4382","0.1641"
"9.7600","2.4448","0.1657"
"9.8400","2.4516","0.1669"
"9.9200","2.4583","0.1681"
"10.0000","2.4649","0.1691"
"10.0800","2.4715","0.1705"
"10.1600","2.4781","0.1715"
"10.2400","2.4849","0.1726"
"10.3200","2.4914","0.1738"
"10.4000","2.4982","0.1752"
"10.4800","2.5049","0.1761"
"10.5600","2.5117","0.1776"
"10.6400","2.5182","0.1785"
"10.7200","2.5247","0.1798"
"10.8000","2.5315","0.1808"
"10.8800","2.5381","0.1821"
"10.9600","2.5448","0.1833"
"11.0400","2.5514","0.1848"
"11.1200","2.5583","0.1855"
"11.2000","2.5649","0.1872"
"11.2800","2.5716","0.1886"
"11.3600","2.5781","0.1891"
"11.4400","2.5848","0.1906"
"11.5200","2.5915","0.1919"
"11.6000","2.5981","0.1929"
"11.6800","2.6048","0.1941"
"11.7600","2.6115","0.1951"
"11.8400","2.6183","0.1967"
"11.9200","2.6248","0.1977"
"12.0000","2.6315","0.1987"
"12.0800","2.6382","0.2000"
"12.1600","2.6448","0.2013"
"12.2400","2.6514","0.2023"
"12.3200","2.6581","0.2035"
"12.4000","2.6649","0.2051"
"12.4800","2.6715","0.2063"
"12.5600","2.6782","0.2072"
"12.6400","2.6848","0.2085"
"12.7200","2.6915","0.2097"
"12.8000","2.6982","0.2109"
"12.8800","2.7047","0.2119"
"12.9600","2.7115","0.2134"
"13.0400","2.7182","0.2144"
"13.1200","2.7249","0.2156"
"13.2000","2.7314","0.2170"
"13.2800","2.7382","0.2184"
"13.3600","2.7449","0.2192"
"13.4400","2.7516","0.2207"
"13.5200","2.7582","0.2214"
"13.6000","2.7648","0.2229"
"13.6800","2.7716","0.2240"
"13.7600","2.7782","0.2255"
"13.8400","2.7849","0.2262"
"13.9200","2.7914","0.2275"
"14.0000","2.7982","0.2289"
"14.0800","2.8049","0.2301"
"14.1600","2.8114","0.2311"
"14.2400","2.8182","0.2322"
"14.3200","2.8248","0.2332"
"14.4000","2.8316","0.2344"
"14.4800","2.8381","0.2360"
"14.5600","2.8449","0.2366"
"14.6400","2.8514","0.2382"
"14.7200","2.8582","0.2388"
"14.8000","2.8648","0.2406"
"14.8800","2.8714","0.2419"
"14.9600","2.8782","0.2426"
"15.0400","2.8848","0.2438"
"15.1200","2.8916","0.2451"
"15.2000","2.8981","0.2464"
"15.2800","2.9049","0.2476"
"15.3600","2.9115","0.2487"
"15.4400","2.9181","0.2498"
"15.5200","2.9248","0.2506"
"15.6000","2.9314","0.2520"
"15.6800","2.9382","0.2535"
"15.7600","2.9448","0.2546"
"15.8400","2.9516","0.2557"
"15.9200","2.9582","0.2569"
"16.0000","2.9649","0.2578"
"16.0800","2.9715","0.2595"
"16.1600","2.9781","0.2609"
"16.2400","2.9849","0.2618"
"16.3200","2.9914","0.2628"
"16.4000","2.9983","0.2640"
"16.4800","3.0049","0.2650"
"16.5600","3.0117","0.2665"
"16.6400","3.0182","0.2673"
"16.7200","3.0248","0.2687"
"16.8000","3.0316","0.2698"
"16.8800","3.0381","0.2708"
"16.9600","3.0448","0.2724"
"17.0400","3.0514","0.2731"
"17.1200","3.0582","0.2744"
"17.2000","3.0649","0.2757"
"17.2800","3.0716","0.2769"
"17.3600","3.0781","0.2780"
"17.4400","3.0849","0.2792"
"17.5200","3.0915","0.2805"
"17.6000","3.0981","0.2815"
"17.6800","3.1048","0.2828"
"17.7600","3.1115","0.2839"
"17.8400","3.1182","0.2852"
"17.9200","3.1248","0.2866"
"18.0000","3.1316","0.2879"
"18.0800","3.1382","0.2889"
"18.1600","3.1448","0.2897"
"18.2400","3.1515","0.2911"
"18.3200","3.1581","0.2923"
"18.4000","3.1649","0.2939"
"18.4800","3.1715","0.2951"
"18.5600","3.1782","0.2959"
"18.6400","3.1848","0.2969"
"18.7200","3.1915","0.2985"
"18.8000","3.1983","0.2997"
"18.8800","3.2047","0.3005"
"18.9600","3.2115","0.3018"
"19.0400","3.2181","0.3030"
"19.1200","3.2249","0.3043"
"19.2000","3.2314","0.3055"
"19.2800","3.2382","0.3066"
"19.3600","3.2449","0.3078"
"19.4400","3.2515","0.3090"
"19.5200","3.2583","0.3097"
"19.6000","3.2648","0.3112"
"19.6800","3.2716","0.3127"
"19.7600","3.2782","0.3136"
"19.8400","3.2849","0.3144"
"19.9200","3.2914","0.3159"
"20.0000","3.2982","0.3169"
"20.0800","3.3049","0.3179"
"20.1600","3.3114","0.3193"
"20.2400","3.3183","0.3203"
"20.3200","3.3249","0.3215"
"20.4000","3.3316","0.3227"
"20.4800","3.3381","0.3238"
"20.5600","3.3449","0.3246"
"20.6400","3.3515","0.3259"
"20.7200","3.3582","0.3271"
"20.8000","3.3648","0.3282"
"20.8800","3.3714","0.3298"
"20.9600","3.3782","0.3308"
"21.0400","3.3848","0.3319"
"21.1200","3.3916","0.3330"
"21.2000","3.3982","0.3341"
"21.2800","3.4049","0.3348"
"21.3600","3.4115","0.3365"
"21.4400","3.4181","0.3374"
"21.5200","3.4248","0.3389"
"21.6000","3.4314","0.3397"
"21.6800","3.4382","0.3409"
"21.7600","3.4448","0.3419"
"21.8400","3.4516","0.3433"
"21.9200","3.4583","0.3440"
"22.0000","3.4649","0.3453"
"22.0800","3.4715","0.3467"
"22.1600","3.4781","0.3477"
"22.2400","3.4849","0.3486"
"22.3200","3.4914","0.3497"
"22.4000","3.4983","0.3512"
"22.4800","3.5049","0.3520"
"22.5600","3.5117","0.3532"
"22.6400","3.5182","0.3542"
"22.7200","3.5248","0.3555"
"22.8000","3.5316","0.3563"
"22.8800","3.5381","0.3576"
"22.9600","3.5448","0.3587"
"23.0400","3.5514","0.3601"
"23.1200","3.5583","0.3607"
"23.2000","3.5649","0.3621"
"23.2800","3.5716","0.3635"
"23.3600","3.5781","0.3645"
"23.4400","3.5849","0.3654"
"23.5200","3.5915","0.3668"
"23.6000","3.5981","0.3677"
"23.6800","3.6048","0.3688"
"23.7600","3.6114","0.3701"
"23.8400","3.6183","0.3708"
"23.9200","3.6248","0.3723"
"24.0000","3.6316","0.3735"
"24.0800","3.6383","0.3749"
"24.1600","3.6448","0.3759"
"24.2400","3.6514","0.3770"
"24.3200","3.6581","0.3776"
"24.4000","3.6649","0.3789"
"24.4800","3.6715","0.3803"
"24.5600","3.6782","0.3810"
"24.6400","3.6848","0.3818"
"24.7200","3.6915","0.3836"
"24.8000","3.6982","0.3847"
"24.8800","3.7048","0.3856"
"24.9600","3.7115","0.3869"
"25.0400","3.7181","0.3878"
"25.1200","3.7249","0.3893"
"25.2000","3.7315","0.3904"
"25.2800","3.7382","0.3912"
"25.3600","3.7449","0.3923"
"25.4400","3.7516","0.3939"
"25.5200","3.7582","0.3946"
"25.6000","3.7648","0.3958"
"25.6800","3.7716","0.3970"
"25.7600","3.7781","0.3979"
"25.8400","3.7848","0.3991"
"25.9200","3.7914","0.4000"
"26.0000","3.7983","0.4017"
"26.0800","3.8049","0.4023"
"26.1600","3.8114","0.4036"
"26.2400","3.8182","0.4050"
"26.3200","3.8248","0.4059"
"26.4000","3.8316","0.4074"
"26.4800","3.8381","0.4081"
"26.5600","3.8449","0.4094"
"26.6400","3.8515","0.4106"
"26.7200","3.8582","0.4116"
"26.8000","3.8648","0.4129"
"26.8800","3.8714","0.4141"
"26.9600","3.8782","0.4151"
"27.0400","3.8849","0.4159"
"27.1200","3.8916","0.4172"
"27.2000","3.8982","0.4182"
"27.2800","3.9049","0.4193"
"27.3600","3.9115","0.4204"
"27.4400","3.9181","0.4219"
"27.5200","3.9248","0.4225"
"27.6000","3.9314","0.4237"
"27.6800","3.9382","0.4247"
"27.7600","3.9448","0.4261"
"27.8400","3.9516","0.4273"
"27.9200","3.9583","0.4281"
"28.0000","3.9649","0.4292"
"28.0800","3.9716","0.4307"
"28.1600","3.9781","0.4318"
"28.2400","3.9849","0.4328"
"28.3200","3.9914","0.4337"
"28.4000","3.9983","0.4347"
"28.4800","4.0049","0.4358"
"28.5600","4.0116","0.4369"
"28.6400","4.0182","0.4380"
"28.7200","4.0248","0.4391"
"28.8000","4.0316","0.4402"
"28.8800","4.0381","0.4414"
"28.9600","4.0448","0.4423"
"29.0400","4.0514","0.4434"
"29.1200","4.0583","0.4444"
"29.2000","4.0649","0.4457"
"29.2800","4.0716","0.4468"
"29.3600","4.0781","0.4476"
"29.4400","4.0848","0.4487"
"29.5200","4.0915","0.4496"
"29.6000","4.0981","0.4508"
"29.6800","4.1048","0.4520"
"29.7600","4.1115","0.4528"
"29.8400","4.1183","0.4540"
"29.9200","4.1248","0.4551"
"30.0000","4.1315","0.4561"
"30.0800","4.1382","0.4575"
"30.1600","4.1448","0.4582"
"30.2400","4.1514","0.4594"
"30.3200","4.1581","0.4603"
"30.4000","4.1649","0.4616"
"30.4800","4.1716","0.4629"
"30.5600","4.1782","0.4640"
"30.6400","4.1848","0.4644"
"30.7200","4.1915","0.4658"
"30.8000","4.1983","0.4668"
"30.8800","4.2048","0.4680"
"30.9600","4.2115","0.4690"
"31.0400","4.2182","0.4698"
"31.1200","4.2249","0.4715"
"31.2000","4.2314","0.4720"
"31.2800","4.2382","0.4734"
"31.3600","4.2449","0.4744"
"31.4400","4.2515","0.4753"
"31.5200","4.2582","0.4762"
"31.6000","4.2648","0.4779"
"31.6800","4.2716","0.4790"
"31.7600","4.2781","0.4797"
"31.8400","4.2849","0.4806"
"31.9200","4.2915","0.4821"
"32.0000","4.2983","0.4835"
"32.0800","4.3049","0.4843"
"32.1600","4.3114","0.4851"
"32.2400","4.3182","0.4867"
"32.3200","4.3248","0.4873"
"32.4000","4.3316","0.4886"
"32.4800","4.3381","0.4890"
"32.5600","4.3449","0.4904"
"32.6400","4.3515","0.4921"
"32.7200","4.3581","0.4929"
"32.8000","4.3648","0.4940"
"32.8800","4.3714","0.4952"
"32.9600","4.3782","0.4960"
"33.0400","4.3848","0.4974"
"33.1200","4.3916","0.4985"
"33.2000","4.3982","0.4995"
"33.2800","4.4049","0.5004"
"33.3600","4.4114","0.5015"
"33.4400","4.4181","0.5026"
"33.5200","4.4248","0.5040"
"33.6000","4.4315","0.5046"
"33.6800","4.4383","0.5060"
"33.7600","4.4448","0.5069"
"33.8400","4.4516","0.5081"
"33.9200","4.4582","0.5089"
"34.0000","4.4648","0.5102"
"34.0800","4.4715","0.5112"
"34.1600","4.4781","0.5125"
"34.2400","4.4849","0.5132"
"34.3200","4.4914","0.5143"
"34.4000","4.4982","0.5158"
"34.4800","4.5049","0.5166"
"34.5600","4.5117","0.5176"
"34.6400","4.5182","0.5187"
"34.7200","4.5248","0.5200"
"34.8000","4.5316","0.5210"
"34.8800","4.5381","0.5218"
"34.9600","4.5448","0.5228"
"35.0400","4.5514","0.5240"
"35.1200","4.5583","0.5252"
"35.2000","4.5649","0.5262"
"35.2800","4.5716","0.5274"
"35.3600","4.5781","0.5283"
"35.4400","4.5849","0.5293"
"35.5200","4.5915","0.5302"
"35.6000","4.5981","0.5314"
"35.6800","4.6048","0.5324"
"35.7600","4.6115","0.5334"
"35.8400","4.6183","0.5342"
"35.9200","4.6248","0.5356"
"36.0000","4.6315","0.5364"
"36.0800","4.6382","0.5373"
"36.1600","4.6448","0.5387"
"36.2400","4.6514","0.5398"
"36.3200","4.6581","0.5411"
"36.4000","4.6649","0.5418"
"36.4800","4.6715","0.5431"
"36.5600","4.6781","0.5439"
"36.6400","4.6848","0.5449"
"36.7200","4.6915","0.5459"
"36.8000","4.6983","0.5469"
"36.8800","4.7048","0.5484"
"36.9600","4.7115","0.5491"
"37.0400","4.7181","0.5499"
"37.1200","4.7249","0.5510"
"37.2000","4.7315","0.5521"
"37.2800","4.7382","0.5535"
"37.3600","4.7449","0.5543"
"37.4400","4.7516","0.5554"
"37.5200","4.7582","0.5563"
"37.6000","4.7647","0.5572"
"37.6800","4.7716","0.5584"
"37.7600","4.7781","0.5593"
"37.8400","4.7848","0.5602"
"37.9200","4.7914","0.5615"
"38.0000","4.7982","0.5620"
"38.0800","4.8049","0.5634"
"38.1600","4.8114","0.5642"
"38.2400","4.8182","0.5656"
"38.3200","4.8249","0.5665"
"38.4000","4.8316","0.5675"
"38.4800","4.8381","0.5684"
"38.5600","4.8449","0.5692"
"38.6400","4.8515","0.5706"
"38.7200","4.8581","0.5713"
"38.8000","4.8648","0.5723"
"38.8800","4.8714","0.5735"
"38.9600","4.8783","0.5742"
"39.0400","4.8848","0.5752"
"39.1200","4.8916","0.5766"
"39.2000","4.8982","0.5776"
"39.2800","4.9049","0.5787"
"39.3600","4.9115","0.5796"
"39.4400","4.9181","0.5803"
"39.5200","4.9248","0.5816"
"39.6000","4.9315","0.5826"
"39.6800","4.9382","0.5837"
"39.7600","4.9448","0.5848"
"39.8400","4.9516","0.5859"
"39.9200","4.9583","0.5866"
"40.0000","4.9649","0.5874"
"40.0800","4.9715","0.5890"
"40.1600","4.9781","0.5896"
"40.2400","4.9849","0.5907"
"40.3200","4.9914","0.5918"
"40.4000","4.9982","0.5933"
"40.4800","5.0049","0.5940"
"40.5600","5.0117","0.5949"
"40.6400","5.0182","0.5959"
"40.7200","5.0248","0.5971"
"40.8000","5.0316","0.5985"
"40.8800","5.0381","0.5991"
"40.9600","5.0448","0.6000"
"41.0400","5.0514","0.6015"
"41.1200","5.0583","0.6024"
"41.2000","5.0649","0.6031"
"41.2800","5.0716","0.6043"
"41.3600","5.0781","0.6053"
"41.4400","5.0848","0.6063"
"41.5200","5.0915","0.6075"
"41.6000","5.0981","0.6084"
"41.6800","5.1049","0.6096"
"41.7600","5.1115","0.6104"
"41.8400","5.1183","0.6114"
"41.9200","5.1248","0.6123"
"42.0000","5.1316","0.6140"
"42.0800","5.1382","0.6146"
"42.1600","5.1449","0.6153"
"42.2400","5.1514","0.6164"
"42.3200","5.1581","0.6178"
"42.4000","5.1649","0.6191"
"42.4800","5.1715","0.6199"
"42.5600","5.1782","0.6207"
"42.6400","5.1848","0.6216"
"42.7200","5.1915","0.6224"
"42.8000","5.1982","0.6241"
"42.8800","5.2047","0.6249"
"42.9600","5.2115","0.6258"
"43.0400","5.2182","0.6266"
"43.1200","5.2249","0.6276"
"43.2000","5.2315","0.6288"
"43.2800","5.2382","0.6301"
"43.3600","5.2449","0.6311"
"43.4400","5.2516","0.6319"
"43.5200","5.2582","0.6332"
"43.6000","5.2648","0.6339"
"43.6800","5.2716","0.6352"
"43.7600","5.2782","0.6358"
"43.8400","5.2849","0.6372"
"43.9200","5.2914","0.6378"
"44.0000","5.2982","0.6388"
"44.0800","5.3048","0.6400"
"44.1600","5.3114","0.6411"
"44.2400","5.3182","0.6418"
"44.3200","5.3249","0.6430"
"44.4000","5.3316","0.6442"
"44.4800","5.3381","0.6451"
"44.5600","5.3449","0.6460"
"44.6400","5.3515","0.6470"
"44.7200","5.3582","0.6479"
"44.8000","5.3647","0.6488"
"44.8800","5.3714","0.6502"
"44.9600","5.3781","0.6514"
"45.0400","5.3848","0.6521"
"45.1200","5.3916","0.6533"
"45.2000","5.3982","0.6544"
"45.2800","5.4049","0.6557"
"45.3600","5.4115","0.6562"
"45.4400","5.4181","0.6571"
"45.5200","5.4248","0.6580"
"45.6000","5.4315","0.6591"
"45.6800","5.4382","0.6604"
"45.7600","5.4448","0.6615"
"45.8400","5.4516","0.6622"
"45.9200","5.4582","0.6631"
"46.0000","5.4649","0.6644"
"46.0800","5.4716","0.6652"
"46.1600","5.4781","0.6667"
"46.2400","5.4849","0.6671"
"46.3200","5.4914","0.6683"
"46.4000","5.4982","0.6694"
"46.4800","5.5049","0.6703"
"46.5600","5.5117","0.6714"
"46.6400","5.5182","0.6721"
"46.7200","5.5248","0.6736"
"46.8000","5.5315","0.6740"
"46.8800","5.5381","0.6756"
"46.9600","5.5448","0.6763"
"47.0400","5.5514","0.6774"
"47.1200","5.5582","0.6782"
"47.2000","5.5649","0.6793"
"47.2800","5.5716","0.6804"
"47.3600","5.5781","0.6814"
"47.4400","5.5848","0.6819"
"47.5200","5.5916","0.6832"
"47.6000","5.5981","0.6842"
"47.6800","5.6048","0.6854"
"47.7600","5.6114","0.6866"
"47.8400","5.6182","0.6872"
"47.9200","5.6248","0.6883"
"48.0000","5.6316","0.6894"
"48.0800","5.6383","0.6905"
"48.1600","5.6449","0.6910"
"48.2400","5.6514","0.6923"
"48.3200","5.6580","0.6934"
"48.4000","5.6649","0.6942"
"48.4800","5.6716","0.6952"
"48.5600","5.6782","0.6962"
"48.6400","5.6849","0.6974"
"48.7200","5.6916","0.6985"
"48.8000","5.6983","0.6997"
"48.8800","5.7047","0.7005"
"48.9600","5.7115","0.7015"
"49.0400","5.7182","0.7026"
"49.1200","5.7249","0.7032"
"49.2000","5.7314","0.7047"
"49.2800","5.7382","0.7059"
"49.3600","5.7449","0.7065"
"49.4400","5.7515","0.7074"
"49.5200","5.7582","0.7083"
"49.6000","5.7648","0.7096"
"49.6800","5.7716","0.7106"
"49.7600","5.7782","0.7116"
"49.8400","5.7849","0.7125"
"49.9200","5.7914","0.7133"
"50.0000","5.7982","0.7146"
"50.0800","5.8049","0.7153"
"50.1600","5.8114","0.7163"
"50.2400","5.8182","0.7175"
"50.3200","5.8249","0.7187"
"50.4000","5.8316","0.7196"
"50.4800","5.8381","0.7208"
"50.5600","5.8449","0.7219"
"50.6400","5.8515","0.7228"
"50.7200","5.8583","0.7232"
"50.8000","5.8648","0.7244"
"50.8800","5.8714","0.7257"
"50.9600","5.8782","0.7265"
"51.0400","5.8848","0.7274"
"51.1200","5.8916","0.7284"
"51.2000","5.8982","0.7295"
"51.2800","5.9049","0.7304"
"51.3600","5.9115","0.7313"
"51.4400","5.9181","0.7323"
"51.5200","5.9248","0.7334"
"51.6000","5.9314","0.7342"
"51.6800","5.9382","0.7351"
"51.7600","5.9448","0.7366"
"51.8400","5.9516","0.7372"
"51.9200","5.9582","0.7381"
"52.0000","5.9649","0.7392"
"52.0800","5.9715","0.7402"
"52.1600","5.9781","0.7413"
"52.2400","5.9849","0.7419"
"52.3200","5.9915","0.7432"
"52.4000","5.9983","0.7442"
"52.4800","6.0049","0.7448"
"52.5600","6.0117","0.7462"
"52.6400","6.0182","0.7467"
"52.7200","6.0248","0.7481"
"52.8000","6.0316","0.7491"
"52.8800","6.0381","0.7499"
"52.9600","6.0448","0.7510"
"53.0400","6.0514","0.7518"
"53.1200","6.0582","0.7529"
"53.2000","6.0648","0.7535"
"53.2800","6.0716","0.7545"
"53.3600","6.0781","0.7558"
"53.4400","6.0849","0.7566"
"53.5200","6.0915","0.7575"
"53.6000","6.0981","0.7584"
"53.6800","6.1048","0.7597"
"53.7600","6.1115","0.7601"
"53.8400","6.1182","0.7610"
"53.9200","6.1248","0.7623"
"54.0000","6.1316","0.7631"
"54.0800","6.1382","0.7642"
"54.1600","6.1448","0.7651"
"54.2400","6.1514","0.7659"
"54.3200","6.1581","0.7672"
"54.4000","6.1649","0.7677"
"54.4800","6.1716","0.7690"
"54.5600","6.1782","0.7699"
"54.6400","6.1848","0.7706"
"54.7200","6.1915","0.7716"
"54.8000","6.1982","0.7726"
"54.8800","6.2048","0.7734"
"54.9600","6.2115","0.7744"
"55.0400","6.2182","0.7755"
"55.1200","6.2249","0.7767"
"55.2000","6.2314","0.7773"
"55.2800","6.2382","0.7783"
"55.3600","6.2449","0.7792"
"55.4400","6.2515","0.7803"
"55.5200","6.2583","0.7812"
"55.6000","6.2648","0.7823"
"55.6800","6.2716","0.7832"
"55.7600","6.2782","0.7841"
"55.8400","6.2849","0.7848"
"55.9200","6.2915","0.7860"
"56.0000","6.2983","0.7870"
"56.0800","6.3048","0.7876"
"56.1600","6.3114","0.7886"
"56.2400","6.3182","0.7897"
"56.3200","6.3248","0.7907"
"56.4000","6.3316","0.7917"
"56.4800","6.3381","0.7924"
"56.5600","6.3449","0.7933"
"56.6400","6.3515","0.7944"
"56.7200","6.3582","0.7953"
"56.8000","6.3647","0.7962"
"56.8800","6.3714","0.7973"
"56.9600","6.3782","0.7978"
"57.0400","6.3848","0.7988"
"57.1200","6.3916","0.8002"
"57.2000","6.3982","0.8007"
"57.2800","6.4049","0.8018"
"57.3600","6.4114","0.8029"
"57.4400","6.4181","0.8038"
"57.5200","6.4248","0.8048"
"57.6000","6.4314","0.8058"
"57.6800","6.4382","0.8064"
"57.7600","6.4448","0.8073"
"57.8400","6.4515","0.8087"
"57.9200","6.4583","0.8092"
"58.0000","6.4648","0.8105"
"58.0800","6.4715","0.8115"
"58.1600","6.4781","0.8124"
"58.2400","6.4849","0.8133"
"58.3200","6.4914","0.8141"
"58.4000","6.4982","0.8152"
"58.4800","6.5049","0.8160"
"58.5600","6.5116","0.8172"
"58.6400","6.5182","0.8179"
"58.7200","6.5248","0.8192"
"58.8000","6.5316","0.8200"
"58.8800","6.5381","0.8209"
"58.9600","6.5448","0.8218"
"59.0400","6.5514","0.8227"
"59.1200","6.5582","0.8236"
"59.2000","6.5649","0.8242"
"59.2800","6.5716","0.8256"
"59.3600","6.5782","0.8265"
"59.4400","6.5849","0.8277"
"59.5200","6.5915","0.8282"
"59.6000","6.5981","0.8290"
"59.6800","6.6047","0.8304"
"59.7600","6.6115","0.8311"
"59.8400","6.6183","0.8319"
"59.9200","6.6248","0.8326"
"60.0000","6.6315","0.8336"
"60.0800","6.6382","0.8348"
"60.1600","6.6448","0.8357"
"60.2400","6.6514","0.8367"
"60.3200","6.6581","0.8374"
"60.4000","6.6649","0.8388"
"60.4800","6.6716","0.8400"
"60.5600","6.6782","0.8404"
"60.6400","6.6848","0.8414"
"60.7200","6.6915","0.8426"
"60.8000","6.6982","0.8432"
"60.8800","6.7048","0.8444"
"60.9600","6.7114","0.8451"
"61.0400","6.7181","0.8460"
"61.1200","6.7249","0.8471"
"61.2000","6.7315","0.8482"
"61.2800","6.7382","0.8488"
"61.3600","6.7449","0.8498"
"61.4400","6.7515","0.8505"
"61.5200","6.7582","0.8517"
"61.6000","6.7648","0.8522"
"61.6800","6.7716","0.8536"
"61.7600","6.7782","0.8545"
"61.8400","6.7849","0.8553"
"61.9200","6.7914","0.8556"
"62.0000","6.7983","0.8570"
"62.0800","6.8049","0.8581"
"62.1600","6.8114","0.8596"
"62.2400","6.8182","0.8602"
"62.3200","6.8248","0.8608"
"62.4000","6.8316","0.8616"
"62.4800","6.8381","0.8624"
"62.5600","6.8449","0.8634"
"62.6400","6.8516","0.8646"
"62.7200","6.8582","0.8654"
"62.8000","6.8648","0.8666"
"62.8800","6.8714","0.8672"
"62.9600","6.8782","0.8678"
"63.0400","6.8849","0.8691"
"63.1200","6.8915","0.8701"
"63.2000","6.8981","0.8710"
"63.2800","6.9049","0.8717"
"63.3600","6.9115","0.8725"
"63.4400","6.9181","0.8734"
"63.5200","6.9248","0.8745"
"63.6000","6.9314","0.8754"
"63.6800","6.9382","0.8762"
"63.7600","6.9448","0.8771"
"63.8400","6.9516","0.8783"
"63.9200","6.9582","0.8791"
"64.0000","6.9648","0.8801"
"64.0800","6.9715","0.8811"
"64.1600","6.9781","0.8821"
"64.2400","6.9849","0.8823"
"64.3200","6.9914","0.8837"
"64.4000","6.9983","0.8843"
"64.4800","7.0049","0.8855"
"64.5600","7.0116","0.8863"
"64.6400","7.0182","0.8866"
"64.7200","7.0248","0.8883"
"64.8000","7.0315","0.8891"
"64.8800","7.0381","0.8901"
"64.9600","7.0448","0.8910"
"65.0400","7.0514","0.8920"
"65.1200","7.0583","0.8928"
"65.2000","7.0649","0.8935"
"65.2800","7.0716","0.8945"
"65.3600","7.0781","0.8953"
"65.4400","7.0848","0.8963"
"65.5200","7.0915","0.8974"
"65.6000","7.0981","0.8979"
"65.6800","7.1048","0.8992"
"65.7600","7.1115","0.8999"
"65.8400","7.1183","0.9009"
"65.9200","7.1248","0.9016"
"66.0000","7.1315","0.9031"
"66.0800","7.1382","0.9041"
"66.1600","7.1448","0.9046"
"66.2400","7.1515","0.9054"
"66.3200","7.1581","0.9069"
"66.4000","7.1648","0.9077"
"66.4800","7.1716","0.9087"
"66.5600","7.1782","0.9093"
"66.6400","7.1848","0.9105"
"66.7200","7.1915","0.9110"
"66.8000","7.1983","0.9121"
"66.8800","7.2047","0.9135"
"66.9600","7.2115","0.9143"
"67.0400","7.2182","0.9150"
"67.1200","7.2249","0.9158"
"67.2000","7.2315","0.9168"
"67.2800","7.2382","0.9178"
"67.3600","7.2449","0.9185"
"67.4400","7.2515","0.9195"
"67.5200","7.2582","0.9204"
"67.6000","7.2647","0.9214"
"67.6800","7.2716","0.9223"
"67.7600","7.2782","0.9227"
"67.8400","7.2849","0.9242"
"67.9200","7.2914","0.9250"
"68.0000","7.2982","0.9261"
"68.0800","7.3049","0.9266"
"68.1600","7.3114","0.9279"
"68.2400","7.3182","0.9287"
"68.3200","7.3248","0.9293"
"68.4000","7.3316","0.9304"
"68.4800","7.3382","0.9313"
"68.5600","7.3449","0.9322"
"68.6400","7.3515","0.9333"
"68.7200","7.3581","0.9339"
"68.8000","7.3648","0.9348"
"68.8800","7.3714","0.9357"
"68.9600","7.3783","0.9368"
"69.0400","7.3849","0.9371"
"69.1200","7.3916","0.9385"
"69.2000","7.3982","0.9393"
"69.2800","7.4049","0.9404"
"69.3600","7.4114","0.9411"
"69.4400","7.4181","0.9422"
"69.5200","7.4248","0.9430"
"69.6000","7.4314","0.9442"
"69.6800","7.4382","0.9449"
"69.7600","7.4448","0.9460"
"69.8400","7.4516","0.9469"
"69.9200","7.4583","0.9478"
"70.0000","7.4649","0.9488"
"70.0800","7.4715","0.9496"
"70.1600","7.4781","0.9506"
"70.2400","7.4849","0.9512"
"70.3200","7.4914","0.9519"
"70.4000","7.4982","0.9529"
"70.4800","7.5049","0.9543"
"70.5600","7.5117","0.9550"
"70.6400","7.5182","0.9557"
"70.7200","7.5248","0.9568"
"70.8000","7.5315","0.9579"
"70.8800","7.5381","0.9588"
"70.9600","7.5448","0.9590"
"71.0400","7.5514","0.9604"
"71.1200","7.5583","0.9612"
"71.2000","7.5649","0.9619"
"71.2800","7.5716","0.9629"
"71.3600","7.5781","0.9641"
"71.4400","7.5849","0.9645"
"71.5200","7.5915","0.9654"
"71.6000","7.5981","0.9662"
"71.6800","7.6048","0.9672"
"71.7600","7.6115","0.9678"
"71.8400","7.6183","0.9691"
"71.9200","7.6248","0.9702"
"72.0000","7.6315","0.9708"
"72.0800","7.6382","0.9716"
"72.1600","7.6448","0.9726"
"72.2400","7.6514","0.9733"
"72.3200","7.6581","0.9740"
"72.4000","7.6649","0.9750"
"72.4800","7.6715","0.9761"
"72.5600","7.6781","0.9768"
"72.6400","7.6848","0.9778"
"72.7200","7.6916","0.9787"
"72.8000","7.6982","0.9795"
"72.8800","7.7048","0.9803"
"72.9600","7.7115","0.9816"
"73.0400","7.7182","0.9820"
"73.1200","7.7249","0.9833"
"73.2000","7.7315","0.9843"
"73.2800","7.7382","0.9851"
"73.3600","7.7449","0.9861"
"73.4400","7.7516","0.9868"
"73.5200","7.7582","0.9873"
"73.6000","7.7648","0.9882"
"73.6800","7.7716","0.9897"
"73.7600","7.7782","0.9903"
"73.8400","7.7849","0.9908"
"73.9200","7.7914","0.9923"
"74.0000","7.7983","0.9930"
"74.0800","7.8048","0.9936"
"74.1600","7.8114","0.9950"
"74.2400","7.8182","0.9952"
"74.3200","7.8248","0.9964"
"74.4000","7.8316","0.9969"
"74.4800","7.8381","0.9978"
"74.5600","7.8449","0.9994"
"74.6400","7.8515","0.9997"
"74.7200","7.8582","1.0005"
"74.8000","7.8647","1.0013"
"74.8800","7.8714","1.0026"
"74.9600","7.8782","1.0033"
"75.0400","7.8848","1.0042"
"75.1200","7.8915","1.0050"
"75.2000","7.8981","1.0060"
"75.2800","7.9049","1.0065"
"75.3600","7.9115","1.0078"
"75.4400","7.9181","1.0083"
"75.5200","7.9248","1.0093"
"75.6000","7.9314","1.0101"
"75.6800","7.9382","1.0107"
"75.7600","7.9448","1.0121"
"75.8400","7.9516","1.0132"
"75.9200","7.9583","1.0140"
"76.0000","7.9649","1.0145"
"76.0800","7.9715","1.0155"
"76.1600","7.9781","1.0164"
"76.2400","7.9849","1.0172"
"76.3200","7.9914","1.0181"
"76.4000","7.9982","1.0189"
"76.4800","8.0049","1.0196"
"76.5600","8.0116","1.0208"
"76.6400","8.0182","1.0213"
"76.7200","8.0248","1.0226"
"76.8000","8.0315","1.0230"
"76.8800","8.0381","1.0244"
"76.9600","8.0448","1.0246"
"77.0400","8.0514","1.0263"
"77.1200","8.0583","1.0271"
"77.2000","8.0649","1.0275"
"77.2800","8.0716","1.0288"
"77.3600","8.0782","1.0293"
"77.4400","8.0848","1.0301"
"77.5200","8.0915","1.0311"
"77.6000","8.0981","1.0321"
"77.6800","8.1048","1.0329"
"77.7600","8.1115","1.0339"
"77.8400","8.1183","1.0344"
"77.9200","8.1248","1.0353"
"78.0000","8.1316","1.0366"
"78.0800","8.1382","1.0374"
"78.1600","8.1448","1.0382"
"78.2400","8.1514","1.0388"
"78.3200","8.1581","1.0396"
"78.4000","8.1649","1.0405"
"78.4800","8.1715","1.0416"
"78.5600","8.1782","1.0423"
"78.6400","8.1848","1.0435"
"78.7200","8.1915","1.0440"
"78.8000","8.1982","1.0450"
"78.8800","8.2048","1.0456"
"78.9600","8.2115","1.0467"
"79.0400","8.2182","1.0474"
"79.1200","8.2249","1.0486"
"79.2000","8.2314","1.0490"
"79.2800","8.2382","1.0499"
"79.3600","8.2449","1.0507"
"79.4400","8.2515","1.0518"
"79.5200","8.2582","1.0527"
"79.6000","8.2648","1.0532"
"79.6800","8.2716","1.0542"
"79.7600","8.2782","1.0552"
"79.8400","8.2849","1.0558"
"79.9200","8.2914","1.0566"
"80.0000","8.2982","1.0576"
"80.0800","8.3049","1.0584"
"80.1600","8.3114","1.0592"
"80.2400","8.3182","1.0601"
"80.3200","8.3249","1.0607"
"80.4000","8.3316","1.0616"
"80.4800","8.3381","1.0627"
"80.5600","8.3449","1.0635"
"80.6400","8.3516","1.0645"
"80.7200","8.3582","1.0650"
"80.8000","8.3648","1.0657"
"80.8800","8.3714","1.0669"
"80.9600","8.3782","1.0678"
"81.0400","8.3848","1.0686"
"81.1200","8.3916","1.0691"
"81.2000","8.3982","1.0699"
"81.2800","8.4049","1.0711"
"81.3600","8.4115","1.0716"
"81.4400","8.4181","1.0725"
"81.5200","8.4248","1.0735"
"81.6000","8.4314","1.0744"
"81.6800","8.4382","1.0747"
"81.7600","8.4448","1.0753"
"81.8400","8.4516","1.0761"
"81.9200","8.4583","1.0768"
"82.0000","8.4649","1.0775"
"82.0800","8.4715","1.0788"
"82.1600","8.4781","1.0795"
"82.2400","8.4849","1.0801"
"82.3200","8.4914","1.0806"
"82.4000","8.4982","1.0817"
"82.4800","8.5049","1.0824"
"82.5600","8.5117","1.0834"
"82.6400","8.5182","1.0837"
"82.7200","8.5248","1.0849"
"82.8000","8.5316","1.0857"
"82.8800","8.5381","1.0863"
"82.9600","8.5448","1.0872"
"83.0400","8.5514","1.0881"
"83.1200","8.5583","1.0888"
"83.2000","8.5649","1.0893"
"83.2800","8.5716","1.0907"
"83.3600","8.5782","1.0912"
"83.4400","8.5849","1.0919"
"83.5200","8.5915","1.0929"
"83.6000","8.5981","1.0936"
"83.6800","8.6048","1.0945"
"83.7600","8.6115","1.0953"
"83.8400","8.6183","1.0962"
"83.9200","8.6248","1.0968"
"84.0000","8.6315","1.0980"
"84.0800","8.6382","1.0983"
"84.1600","8.6449","1.0994"
"84.2400","8.6514","1.1001"
"84.3200","8.6581","1.1010"
"84.4000","8.6649","1.1018"
"84.4800","8.6716","1.1028"
"84.5600","8.6782","1.1034"
"84.6400","8.6848","1.1043"
"84.7200","8.6915","1.1050"
"84.8000","8.6982","1.1059"
"84.8800","8.7048","1.1067"
"84.9600","8.7115","1.1073"
"85.0400","8.7182","1.1084"
"85.1200","8.7249","1.1089"
"85.2000","8.7315","1.1099"
"85.2800","8.7382","1.1111"
"85.3600","8.7449","1.1117"
"85.4400","8.7515","1.1125"
"85.5200","8.7582","1.1130"
"85.6000","8.7648","1.1138"
"85.6800","8.7716","1.1151"
"85.7600","8.7782","1.1156"
"85.8400","8.7849","1.1159"
"85.9200","8.7914","1.1173"
"86.0000","8.7982","1.1181"
"86.0800","8.8049","1.1180"
"86.1600","8.8114","1.1186"
"86.2400","8.8182","1.1194"
"86.3200","8.8248","1.1200"
"86.4000","8.8316","1.1205"
"86.4800","8.8381","1.1217"
"86.5600","8.8449","1.1223"
"86.6400","8.8516","1.1232"
"86.7200","8.8582","1.1240"
"86.8000","8.8648","1.1246"
"86.8800","8.8714","1.1255"
"86.9600","8.8781","1.1264"
"87.0400","8.8848","1.1268"
"87.1200","8.8916","1.1274"
"87.2000","8.8982","1.1285"
"87.2800","8.9049","1.1291"
"87.3600","8.9115","1.1298"
"87.4400","8.9181","1.1303"
"87.5200","8.9248","1.1314"
"87.6000","8.9314","1.1322"
"87.6800","8.9382","1.1326"
"87.7600","8.9448","1.1335"
"87.8400","8.9516","1.1347"
"87.9200","8.9583","1.1352"
"88.0000","8.9648","1.1361"
"88.0800","8.9715","1.1369"
"88.1600","8.9781","1.1376"
"88.2400","8.9849","1.1383"
"88.3200","8.9914","1.1392"
"88.4000","8.9982","1.1400"
"88.4800","9.0049","1.1407"
"88.5600","9.0116","1.1412"
"88.6400","9.0182","1.1424"
"88.7200","9.0248","1.1433"
"88.8000","9.0316","1.1438"
"88.8800","9.0381","1.1446"
"88.9600","9.0448","1.1451"
"89.0400","9.0514","1.1465"
"89.1200","9.0583","1.1468"
"89.2000","9.0649","1.1476"
"89.2800","9.0716","1.1491"
"89.3600","9.0782","1.1493"
"89.4400","9.0849","1.1497"
"89.5200","9.0915","1.1508"
"89.6000","9.0981","1.1518"
"89.6800","9.1047","1.1527"
"89.7600","9.1115","1.1534"
"89.8400","9.1183","1.1540"
"89.9200","9.1248","1.1547"
"90.0000","9.1316","1.1557"
"90.0800","9.1382","1.1569"
"90.1600","9.1448","1.1573"
"90.2400","9.1514","1.1582"
"90.3200","9.1581","1.1586"
"90.4000","9.1649","1.1596"
"90.4800","9.1716","1.1604"
"90.5600","9.1782","1.1612"
"90.6400","9.1848","1.1618"
"90.7200","9.1915","1.1627"
"90.8000","9.1982","1.1636"
"90.8800","9.2048","1.1639"
"90.9600","9.2115","1.1648"
"91.0400","9.2181","1.1656"
"91.1200","9.2249","1.1666"
"91.2000","9.2314","1.1675"
"91.2800","9.2382","1.1683"
"91.3600","9.2449","1.1686"
"91.4400","9.2516","1.1703"
"91.5200","9.2582","1.1703"
"91.6000","9.2648","1.1715"
"91.6800","9.2716","1.1722"
"91.7600","9.2781","1.1730"
"91.8400","9.2849","1.1732"
"91.9200","9.2914","1.1745"
"92.0000","9.2983","1.1751"
"92.0800","9.3049","1.1757"
"92.1600","9.3114","1.1765"
"92.2400","9.3182","1.1776"
"92.3200","9.3248","1.1785"
"92.4000","9.3316","1.1790"
"92.4800","9.3381","1.1795"
"92.5600","9.3449","1.1804"
"92.6400","9.3516","1.1810"
"92.7200","9.3583","1.1824"
"92.8000","9.3647","1.1827"
"92.8800","9.3714","1.1835"
"92.9600","9.3783","1.1841"
"93.0400","9.3849","1.1850"
"93.1200","9.3916","1.1858"
"93.2000","9.3982","1.1867"
"93.2800","9.4049","1.1873"
"93.3600","9.4115","1.1882"
"93.4400","9.4181","1.1890"
"93.5200","9.4248","1.1895"
"93.6000","9.4315","1.1904"
"93.6800","9.4382","1.1912"
"93.7600","9.4448","1.1920"
"93.8400","9.4516","1.1928"
"93.9200","9.4583","1.1937"
"94.0000","9.4649","1.1941"
"94.0800","9.4716","1.1948"
"94.1600","9.4781","1.1958"
"94.2400","9.4849","1.1964"
"94.3200","9.4914","1.1974"
"94.4000","9.4982","1.1977"
"94.4800","9.5049","1.1990"
"94.5600","9.5117","1.1996"
"94.6400","9.5183","1.2000"
"94.7200","9.5248","1.2012"
"94.8000","9.5316","1.2018"
"94.8800","9.5381","1.2029"
"94.9600","9.5448","1.2031"
"95.0400","9.5514","1.2040"
"95.1200","9.5582","1.2047"
"95.2000","9.5649","1.2055"
"95.2800","9.5716","1.2066"
"95.3600","9.5781","1.2072"
"95.4400","9.5849","1.2079"
"95.5200","9.5915","1.2083"
"95.6000","9.5981","1.2091"
"95.6800","9.6048","1.1971"
"95.7600","9.6115","1.1976"
"95.8400","9.6183","1.1981"
"95.9200","9.6248","1.1987"
"96.0000","9.6315","1.1993"
"96.0800","9.6382","1.2001"
"96.1600","9.6448","1.2006"
"96.2400","9.6515","1.2009"
"96.3200","9.6581","1.2017"
"96.4000","9.6649","1.2023"
"96.4800","9.6716","1.2032"
"96.5600","9.6782","1.2039"
"96.6400","9.6848","1.2043"
"96.7200","9.6915","1.1983"
"96.8000","9.6983","1.1987"
"96.8800","9.7048","1.1989"
"96.9600","9.7115","1.1995"
"97.0400","9.7182","1.2001"
"97.1200","9.7249","1.2008"
"97.2000","9.7314","1.2013"
"97.2800","9.7382","1.2019"
"97.3600","9.7449","1.2026"
"97.4400","9.7515","1.2034"
"97.5200","9.7582","1.2037"
"97.6000","9.7648","1.2048"
"97.6800","9.7716","1.2055"
"97.7600","9.7782","1.2061"
"97.8400","9.7849","1.2069"
"97.9200","9.7915","1.2078"
"98.0000","9.7983","1.2081"
"98.0800","9.8048","1.1907"
"98.1600","9.8114","1.1906"
"98.2400","9.8182","1.1627"
"98.3200","9.8248","1.1568"
"98.4000","9.8316","1.1537"
"98.4800","9.8382","1.0679"
"98.5600","9.8449","1.0597"
"98.6400","9.8515","1.0575"
"98.7200","9.8582","1.0555"
"98.8000","9.8647","1.0511"
"98.8800","9.8714","1.0500"
"98.9600","9.8782","1.0492"
"99.0400","9.8848","1.0487"
"99.1200","9.8916","1.0462"
"99.2000","9.8981","1.0459"
"99.2800","9.9049","1.0457"
"99.3600","9.9115","1.0458"
"99.4400","9.9181","1.0452"
"99.5200","9.9248","1.0459"
"99.6000","9.9314","1.0456"
"99.6800","9.9382","1.0457"
"99.7600","9.9447","1.0461"
"99.8400","9.9516","1.0464"
"99.9200","9.9583","1.0466"
"100.0000","9.9649","1.0471"
"100.0800","9.9715","1.0474"
"100.1600","9.9781","1.0483"
"100.2400","9.9849","1.0483"
"100.3200","9.9914","1.0489"
"100.4000","9.9983","1.0358"
"100.4800","10.0049","0.9546"
"100.5600","10.0117","0.9512"
"100.6400","10.0182","0.9487"
"100.7200","10.0248","0.9473"
"100.8000","10.0316","0.9465"
"100.8800","10.0381","0.9456"
"100.9600","10.0448","0.9456"
"101.0400","10.0514","0.9454"
"101.1200","10.0583","0.9451"
"101.2000","10.0649","0.9451"
"101.2800","10.0716","0.9451"
"101.3600","10.0781","0.9454"
"101.4400","10.0848","0.9453"
"101.5200","10.0915","0.9457"
"101.6000","10.0981","0.9459"
"101.6800","10.1048","0.9463"
"101.7600","10.1115","0.9467"
"101.8400","10.1183","0.9469"
"101.9200","10.1248","0.9472"
"102.0000","10.1315","0.9478"
"102.0800","10.1381","0.9481"
"102.1600","10.1448","0.9483"
"102.2400","10.1514","0.9492"
"102.3200","10.1581","0.9492"
"102.4000","10.1649","0.9501"
"102.4800","10.1716","0.9505"
"102.5600","10.1782","0.9479"
"102.6400","10.1848","0.9476"
"102.7200","10.1915","0.9479"
"102.8000","10.1983","0.9467"
"102.8800","10.2048","0.9464"
"102.9600","10.2114","0.9470"
"103.0400","10.2181","0.9468"
"103.1200","10.2249","0.9470"
"103.2000","10.2315","0.9480"
"103.2800","10.2382","0.9484"
"103.3600","10.2449","0.9483"
"103.4400","10.2516","0.9489"
"103.5200","10.2582","0.9492"
"103.6000","10.2648","0.9497"
"103.6800","10.2716","0.9504"
"103.7600","10.2782","0.9508"
"103.8400","10.2849","0.9508"
"103.9200","10.2914","0.9515"
"104.0000","10.2982","0.9522"
"104.0800","10.3049","0.9524"
"104.1600","10.3114","0.9532"
"104.2400","10.3182","0.9537"
"104.3200","10.3248","0.9544"
"104.4000","10.3316","0.9546"
"104.4800","10.3381","0.9550"
"104.5600","10.3449","0.9554"
"104.6400","10.3515","0.9557"
"104.7200","10.3582","0.9561"
"104.8000","10.3648","0.9564"
"104.8800","10.3714","0.9572"
"104.9600","10.3782","0.9573"
"105.0400","10.3849","0.9579"
"105.1200","10.3915","0.9584"
"105.2000","10.3982","0.9588"
"105.2380","10.4013","0.9588"