File: flexural/ES100_Trevor_Flexural_Data_15_1.csv
Specimen text inputs : Specimen text input  1,,""

Results Table 1
,Specimen text input  1
"15","bf_f1"

Results Table 2

Time,Displacement,Force
(s),(mm),(kN)
"0.0000","0.5640","0.0203"
"0.0800","0.5726","0.0239"
"0.1600","0.5768","0.0239"
"0.2400","0.5832","0.0249"
"0.3200","0.5894","0.0263"
"0.4000","0.5961","0.0273"
"0.4800","0.6028","0.0287"
"0.5600","0.6094","0.0300"
"0.6400","0.6161","0.0314"
"0.7200","0.6228","0.0324"
"0.8000","0.6296","0.0339"
"0.8800","0.6362","0.0354"
"0.9600","0.6429","0.0362"
"1.0400","0.6495","0.0382"
"1.1200","0.6562","0.0392"
"1.2000","0.6628","0.0405"
"1.2800","0.6694","0.0420"
"1.3600","0.6762","0.0432"
"1.4400","0.6828","0.0445"
"1.5200","0.6896","0.0459"
"1.6000","0.6962","0.0473"
"1.6800","0.7029","0.0487"
"1.7600","0.7095","0.0499"
"1.8400","0.7162","0.0510"
"1.9200","0.7228","0.0522"
"2.0000","0.7294","0.0535"
"2.0800","0.7363","0.0552"
"2.1600","0.7429","0.0564"
"2.2400","0.7496","0.0578"
"2.3200","0.7562","0.0588"
"2.4000","0.7629","0.0606"
"2.4800","0.7696","0.0620"
"2.5600","0.7761","0.0634"
"2.6400","0.7828","0.0649"
"2.7200","0.7894","0.0658"
"2.8000","0.7962","0.0676"
"2.8800","0.8027","0.0688"
"2.9600","0.8096","0.0703"
"3.0400","0.8163","0.0712"
"3.1200","0.8229","0.0733"
"3.2000","0.8294","0.0746"
"3.2800","0.8361","0.0759"
"3.3600","0.8428","0.0773"
"3.4400","0.8494","0.0789"
"3.5200","0.8562","0.0799"
"3.6000","0.8628","0.0815"
"3.6800","0.8696","0.0833"
"3.7600","0.8762","0.0844"
"3.8400","0.8828","0.0858"
"3.9200","0.8894","0.0870"
"4.0000","0.8961","0.0884"
"4.0800","0.9029","0.0902"
"4.1600","0.9094","0.0913"
"4.2400","0.9162","0.0928"
"4.3200","0.9228","0.0943"
"4.4000","0.9294","0.0956"
"4.4800","0.9361","0.0970"
"4.5600","0.9427","0.0986"
"4.6400","0.9496","0.0994"
"4.7200","0.9561","0.1013"
"4.8000","0.9629","0.1028"
"4.8800","0.9694","0.1044"
"4.9600","0.9762","0.1062"
"5.0400","0.9829","0.1073"
"5.1200","0.9894","0.1087"
"5.2000","0.9962","0.1101"
"5.2800","1.0028","0.1116"
"5.3600","1.0096","0.1129"
"5.4400","1.0161","0.1143"
"5.5200","1.0229","0.1161"
"5.6000","1.0295","0.1174"
"5.6800","1.0362","0.1187"
"5.7600","1.0428","0.1198"
"5.8400","1.0494","0.1213"
"5.9200","1.0562","0.1227"
"6.0000","1.0627","0.1239"
"6.0800","1.0695","0.1257"
"6.1600","1.0761","0.1268"
"6.2400","1.0830","0.1281"
"6.3200","1.0894","0.1300"
"6.4000","1.0962","0.1316"
"6.4800","1.1028","0.1327"
"6.5600","1.1095","0.1341"
"6.6400","1.1161","0.1356"
"6.7200","1.1228","0.1371"
"6.8000","1.1296","0.1382"
"6.8800","1.1362","0.1396"
"6.9600","1.1429","0.1414"
"7.0400","1.1494","0.1425"
"7.1200","1.1561","0.1440"
"7.2000","1.1628","0.1455"
"7.2800","1.1694","0.1467"
"7.3600","1.1762","0.1480"
"7.4400","1.1829","0.1499"
"7.5200","1.1896","0.1511"
"7.6000","1.1961","0.1526"
"7.6800","1.2028","0.1543"
"7.7600","1.2095","0.1557"
"7.8400","1.2162","0.1568"
"7.9200","1.2228","0.1584"
"8.0000","1.2294","0.1601"
"8.0800","1.2363","0.1614"
"8.1600","1.2429","0.1627"
"8.2400","1.2496","0.1642"
"8.3200","1.2562","0.1657"
"8.4000","1.2629","0.1675"
"8.4800","1.2696","0.1686"
"8.5600","1.2761","0.1700"
"8.6400","1.2828","0.1714"
"8.7200","1.2894","0.1728"
"8.8000","1.2962","0.1747"
"8.8800","1.3028","0.1758"
"8.9600","1.3096","0.1773"
"9.0400","1.3163","0.1787"
"9.1200","1.3229","0.1800"
"9.2000","1.3294","0.1815"
"9.2800","1.3361","0.1832"
"9.3600","1.3429","0.1846"
"9.4400","1.3495","0.1860"
"9.5200","1.3563","0.1875"
"9.6000","1.3628","0.1890"
"9.6800","1.3696","0.1906"
"9.7600","1.3761","0.1918"
"9.8400","1.3828","0.1930"
"9.9200","1.3895","0.1944"
"10.0000","1.3962","0.1962"
"10.0800","1.4029","0.1973"
"10.1600","1.4094","0.1994"
"10.2400","1.4162","0.2002"
"10.3200","1.4229","0.2020"
"10.4000","1.4295","0.2037"
"10.4800","1.4361","0.2048"
"10.5600","1.4428","0.2064"
"10.6400","1.4496","0.2077"
"10.7200","1.4561","0.2090"
"10.8000","1.4629","0.2108"
"10.8800","1.4695","0.2120"
"10.9600","1.4763","0.2134"
"11.0400","1.4829","0.2148"
"11.1200","1.4894","0.2169"
"11.2000","1.4962","0.2181"
"11.2800","1.5028","0.2195"
"11.3600","1.5096","0.2208"
"11.4400","1.5161","0.2224"
"11.5200","1.5230","0.2237"
"11.6000","1.5296","0.2254"
"11.6800","1.5362","0.2267"
"11.7600","1.5428","0.2278"
"11.8400","1.5494","0.2299"
"11.9200","1.5562","0.2309"
"12.0000","1.5628","0.2324"
"12.0800","1.5696","0.2340"
"12.1600","1.5762","0.2352"
"12.2400","1.5829","0.2363"
"12.3200","1.5894","0.2383"
"12.4000","1.5961","0.2397"
"12.4800","1.6028","0.2410"
"12.5600","1.6094","0.2425"
"12.6400","1.6161","0.2443"
"12.7200","1.6227","0.2450"
"12.8000","1.6296","0.2470"
"12.8800","1.6362","0.2482"
"12.9600","1.6429","0.2496"
"13.0400","1.6494","0.2510"
"13.1200","1.6561","0.2526"
"13.2000","1.6628","0.2541"
"13.2800","1.6694","0.2558"
"13.3600","1.6761","0.2566"
"13.4400","1.6828","0.2582"
"13.5200","1.6896","0.2595"
"13.6000","1.6961","0.2612"
"13.6800","1.7028","0.2626"
"13.7600","1.7096","0.2641"
"13.8400","1.7162","0.2651"
"13.9200","1.7228","0.2669"
"14.0000","1.7294","0.2688"
"14.0800","1.7363","0.2698"
"14.1600","1.7429","0.2712"
"14.2400","1.7496","0.2728"
"14.3200","1.7562","0.2741"
"14.4000","1.7629","0.2758"
"14.4800","1.7696","0.2774"
"14.5600","1.7761","0.2787"
"14.6400","1.7828","0.2799"
"14.7200","1.7894","0.2813"
"14.8000","1.7963","0.2831"
"14.8800","1.8027","0.2843"
"14.9600","1.8096","0.2862"
"15.0400","1.8162","0.2876"
"15.1200","1.8229","0.2891"
"15.2000","1.8295","0.2903"
"15.2800","1.8361","0.2920"
"15.3600","1.8429","0.2936"
"15.4400","1.8494","0.2950"
"15.5200","1.8562","0.2963"
"15.6000","1.8628","0.2974"
"15.6800","1.8696","0.2992"
"15.7600","1.8761","0.3007"
"15.8400","1.8828","0.3021"
"15.9200","1.8895","0.3037"
"16.0000","1.8961","0.3052"
"16.0800","1.9029","0.3062"
"16.1600","1.9094","0.3078"
"16.2400","1.9162","0.3092"
"16.3200","1.9228","0.3103"
"16.4000","1.9295","0.3121"
"16.4800","1.9361","0.3133"
"16.5600","1.9428","0.3150"
"16.6400","1.9496","0.3162"
"16.7200","1.9561","0.3179"
"16.8000","1.9629","0.3189"
"16.8800","1.9695","0.3208"
"16.9600","1.9763","0.3224"
"17.0400","1.9828","0.3237"
"17.1200","1.9894","0.3250"
"17.2000","1.9962","0.3267"
"17.2800","2.0028","0.3280"
"17.3600","2.0097","0.3290"
"17.4400","2.0162","0.3307"
"17.5200","2.0229","0.3323"
"17.6000","2.0296","0.3338"
"17.6800","2.0363","0.3350"
"17.7600","2.0428","0.3361"
"17.8400","2.0494","0.3376"
"17.9200","2.0562","0.3393"
"18.0000","2.0628","0.3404"
"18.0800","2.0696","0.3421"
"18.1600","2.0762","0.3432"
"18.2400","2.0830","0.3445"
"18.3200","2.0894","0.3460"
"18.4000","2.0962","0.3477"
"18.4800","2.1029","0.3487"
"18.5600","2.1095","0.3503"
"18.6400","2.1161","0.3519"
"18.7200","2.1228","0.3531"
"18.8000","2.1296","0.3544"
"18.8800","2.1362","0.3558"
"18.9600","2.1429","0.3572"
"19.0400","2.1494","0.3588"
"19.1200","2.1562","0.3605"
"19.2000","2.1628","0.3613"
"19.2800","2.1694","0.3628"
"19.3600","2.1761","0.3644"
"19.4400","2.1828","0.3657"
"19.5200","2.1896","0.3670"
"19.6000","2.1961","0.3687"
"19.6800","2.2028","0.3698"
"19.7600","2.2096","0.3716"
"19.8400","2.2162","0.3726"
"19.9200","2.2229","0.3741"
"20.0000","2.2294","0.3755"
"20.0800","2.2362","0.3768"
"20.1600","2.2429","0.3785"
"20.2400","2.2496","0.3795"
"20.3200","2.2562","0.3812"
"20.4000","2.2629","0.3824"
"20.4800","2.2696","0.3836"
"20.5600","2.2761","0.3851"
"20.6400","2.2828","0.3868"
"20.7200","2.2895","0.3879"
"20.8000","2.2963","0.3895"
"20.8800","2.3028","0.3906"
"20.9600","2.3096","0.3926"
"21.0400","2.3162","0.3934"
"21.1200","2.3229","0.3953"
"21.2000","2.3295","0.3965"
"21.2800","2.3361","0.3981"
"21.3600","2.3429","0.3990"
"21.4400","2.3495","0.4007"
"21.5200","2.3562","0.4022"
"21.6000","2.3628","0.4032"
"21.6800","2.3696","0.4050"
"21.7600","2.3762","0.4065"
"21.8400","2.3828","0.4078"
"21.9200","2.3895","0.4091"
"22.0000","2.3962","0.4106"
"22.0800","2.4029","0.4118"
"22.1600","2.4094","0.4136"
"22.2400","2.4162","0.4147"
"22.3200","2.4229","0.4161"
"22.4000","2.4295","0.4172"
"22.4800","2.4361","0.4188"
"22.5600","2.4428","0.4205"
"22.6400","2.4496","0.4217"
"22.7200","2.4562","0.4233"
"22.8000","2.4629","0.4244"
"22.8800","2.4695","0.4258"
"22.9600","2.4762","0.4273"
"23.0400","2.4829","0.4287"
"23.1200","2.4894","0.4301"
"23.2000","2.4962","0.4313"
"23.2800","2.5028","0.4323"
"23.3600","2.5096","0.4341"
"23.4400","2.5161","0.4351"
"23.5200","2.5229","0.4367"
"23.6000","2.5295","0.4382"
"23.6800","2.5362","0.4395"
"23.7600","2.5428","0.4403"
"23.8400","2.5494","0.4424"
"23.9200","2.5562","0.4435"
"24.0000","2.5628","0.4446"
"24.0800","2.5696","0.4462"
"24.1600","2.5762","0.4473"
"24.2400","2.5829","0.4485"
"24.3200","2.5894","0.4500"
"24.4000","2.5962","0.4515"
"24.4800","2.6028","0.4526"
"24.5600","2.6095","0.4542"
"24.6400","2.6161","0.4553"
"24.7200","2.6228","0.4566"
"24.8000","2.6296","0.4579"
"24.8800","2.6362","0.4594"
"24.9600","2.6429","0.4606"
"25.0400","2.6495","0.4622"
"25.1200","2.6561","0.4636"
"25.2000","2.6628","0.4646"
"25.2800","2.6694","0.4663"
"25.3600","2.6762","0.4673"
"25.4400","2.6829","0.4688"
"25.5200","2.6896","0.4702"
"25.6000","2.6961","0.4716"
"25.6800","2.7029","0.4729"
"25.7600","2.7096","0.4740"
"25.8400","2.7161","0.4753"
"25.9200","2.7227","0.4766"
"26.0000","2.7294","0.4779"
"26.0800","2.7363","0.4793"
"26.1600","2.7429","0.4809"
"26.2400","2.7496","0.4822"
"26.3200","2.7562","0.4833"
"26.4000","2.7629","0.4849"
"26.4800","2.7696","0.4863"
"26.5600","2.7761","0.4872"
"26.6400","2.7828","0.4887"
"26.7200","2.7894","0.4901"
"26.8000","2.7962","0.4917"
"26.8800","2.8028","0.4933"
"26.9600","2.8096","0.4944"
"27.0400","2.8163","0.4957"
"27.1200","2.8229","0.4977"
"27.2000","2.8295","0.4983"
"27.2800","2.8361","0.5001"
"27.3600","2.8429","0.5012"
"27.4400","2.8494","0.5027"
"27.5200","2.8562","0.5038"
"27.6000","2.8628","0.5054"
"27.6800","2.8696","0.5067"
"27.7600","2.8762","0.5078"
"27.8400","2.8828","0.5093"
"27.9200","2.8894","0.5108"
"28.0000","2.8961","0.5119"
"28.0800","2.9029","0.5133"
"28.1600","2.9094","0.5144"
"28.2400","2.9162","0.5157"
"28.3200","2.9229","0.5174"
"28.4000","2.9295","0.5190"
"28.4800","2.9361","0.5202"
"28.5600","2.9427","0.5208"
"28.6400","2.9496","0.5225"
"28.7200","2.9562","0.5241"
"28.8000","2.9629","0.5253"
"28.8800","2.9695","0.5266"
"28.9600","2.9762","0.5281"
"29.0400","2.9828","0.5291"
"29.1200","2.9894","0.5308"
"29.2000","2.9962","0.5321"
"29.2800","3.0029","0.5334"
"29.3600","3.0096","0.5343"
"29.4400","3.0161","0.5359"
"29.5200","3.0229","0.5372"
"29.6000","3.0295","0.5384"
"29.6800","3.0362","0.5396"
"29.7600","3.0428","0.5404"
"29.8400","3.0494","0.5420"
"29.9200","3.0563","0.5436"
"30.0000","3.0627","0.5447"
"30.0800","3.0696","0.5459"
"30.1600","3.0761","0.5475"
"30.2400","3.0830","0.5485"
"30.3200","3.0894","0.5499"
"30.4000","3.0962","0.5508"
"30.4800","3.1028","0.5521"
"30.5600","3.1095","0.5538"
"30.6400","3.1161","0.5547"
"30.7200","3.1227","0.5561"
"30.8000","3.1296","0.5577"
"30.8800","3.1363","0.5589"
"30.9600","3.1429","0.5601"
"31.0400","3.1494","0.5615"
"31.1200","3.1561","0.5629"
"31.2000","3.1628","0.5638"
"31.2800","3.1694","0.5650"
"31.3600","3.1761","0.5665"
"31.4400","3.1828","0.5678"
"31.5200","3.1896","0.5687"
"31.6000","3.1961","0.5703"
"31.6800","3.2028","0.5718"
"31.7600","3.2096","0.5730"
"31.8400","3.2162","0.5739"
"31.9200","3.2229","0.5753"
"32.0000","3.2294","0.5766"
"32.0800","3.2362","0.5777"
"32.1600","3.2429","0.5793"
"32.2400","3.2495","0.5803"
"32.3200","3.2562","0.5814"
"32.4000","3.2629","0.5831"
"32.4800","3.2696","0.5840"
"32.5600","3.2761","0.5857"
"32.6400","3.2828","0.5868"
"32.7200","3.2894","0.5876"
"32.8000","3.2963","0.5893"
"32.8800","3.3028","0.5904"
"32.9600","3.3096","0.5918"
"33.0400","3.3163","0.5931"
"33.1200","3.3229","0.5941"
"33.2000","3.3295","0.5955"
"33.2800","3.3361","0.5969"
"33.3600","3.3429","0.5983"
"33.4400","3.3495","0.5994"
"33.5200","3.3562","0.6005"
"33.6000","3.3628","0.6020"
"33.6800","3.3696","0.6033"
"33.7600","3.3762","0.6047"
"33.8400","3.3828","0.6058"
"33.9200","3.3894","0.6072"
"34.0000","3.3961","0.6088"
"34.0800","3.4029","0.6096"
"34.1600","3.4094","0.6112"
"34.2400","3.4162","0.6121"
"34.3200","3.4229","0.6139"
"34.4000","3.4294","0.6150"
"34.4800","3.4361","0.6162"
"34.5600","3.4427","0.6175"
"34.6400","3.4496","0.6186"
"34.7200","3.4561","0.6199"
"34.8000","3.4629","0.6208"
"34.8800","3.4695","0.6230"
"34.9600","3.4763","0.6237"
"35.0400","3.4829","0.6250"
"35.1200","3.4894","0.6260"
"35.2000","3.4962","0.6277"
"35.2800","3.5028","0.6288"
"35.3600","3.5096","0.6301"
"35.4400","3.5161","0.6314"
"35.5200","3.5229","0.6323"
"35.6000","3.5296","0.6336"
"35.6800","3.5362","0.6350"
"35.7600","3.5428","0.6360"
"35.8400","3.5494","0.6374"
"35.9200","3.5562","0.6387"
"36.0000","3.5628","0.6399"
"36.0800","3.5696","0.6413"
"36.1600","3.5761","0.6425"
"36.2400","3.5829","0.6436"
"36.3200","3.5895","0.6448"
"36.4000","3.5962","0.6459"
"36.4800","3.6028","0.6472"
"36.5600","3.6094","0.6483"
"36.6400","3.6161","0.6498"
"36.7200","3.6227","0.6510"
"36.8000","3.6296","0.6521"
"36.8800","3.6363","0.6532"
"36.9600","3.6429","0.6546"
"37.0400","3.6494","0.6561"
"37.1200","3.6561","0.6570"
"37.2000","3.6628","0.6581"
"37.2800","3.6694","0.6594"
"37.3600","3.6762","0.6610"
"37.4400","3.6829","0.6620"
"37.5200","3.6896","0.6630"
"37.6000","3.6961","0.6643"
"37.6800","3.7028","0.6657"
"37.7600","3.7095","0.6670"
"37.8400","3.7161","0.6683"
"37.9200","3.7228","0.6694"
"38.0000","3.7294","0.6708"
"38.0800","3.7362","0.6722"
"38.1600","3.7429","0.6729"
"38.2400","3.7496","0.6745"
"38.3200","3.7562","0.6752"
"38.4000","3.7629","0.6768"
"38.4800","3.7696","0.6777"
"38.5600","3.7761","0.6790"
"38.6400","3.7828","0.6804"
"38.7200","3.7894","0.6815"
"38.8000","3.7963","0.6822"
"38.8800","3.8028","0.6835"
"38.9600","3.8096","0.6850"
"39.0400","3.8163","0.6864"
"39.1200","3.8229","0.6872"
"39.2000","3.8294","0.6884"
"39.2800","3.8361","0.6901"
"39.3600","3.8429","0.6907"
"39.4400","3.8495","0.6921"
"39.5200","3.8562","0.6933"
"39.6000","3.8628","0.6946"
"39.6800","3.8696","0.6956"
"39.7600","3.8762","0.6972"
"39.8400","3.8828","0.6983"
"39.9200","3.8895","0.6997"
"40.0000","3.8962","0.7007"
"40.0800","3.9029","0.7023"
"40.1600","3.9094","0.7037"
"40.2400","3.9162","0.7045"
"40.3200","3.9228","0.7056"
"40.4000","3.9295","0.7069"
"40.4800","3.9361","0.7079"
"40.5600","3.9428","0.7092"
"40.6400","3.9496","0.7106"
"40.7200","3.9562","0.7119"
"40.8000","3.9629","0.7127"
"40.8800","3.9695","0.7142"
"40.9600","3.9762","0.7155"
"41.0400","3.9829","0.7165"
"41.1200","3.9895","0.7180"
"41.2000","3.9962","0.7191"
"41.2800","4.0028","0.7204"
"41.3600","4.0096","0.7211"
"41.4400","4.0161","0.7221"
"41.5200","4.0229","0.7237"
"41.6000","4.0296","0.7245"
"41.6800","4.0363","0.7262"
"41.7600","4.0428","0.7275"
"41.8400","4.0494","0.7290"
"41.9200","4.0562","0.7297"
"42.0000","4.0628","0.7308"
"42.0800","4.0696","0.7324"
"42.1600","4.0762","0.7332"
"42.2400","4.0830","0.7346"
"42.3200","4.0895","0.7355"
"42.4000","4.0961","0.7374"
"42.4800","4.1028","0.7381"
"42.5600","4.1094","0.7392"
"42.6400","4.1161","0.7404"
"42.7200","4.1228","0.7418"
"42.8000","4.1296","0.7430"
"42.8800","4.1363","0.7440"
"42.9600","4.1429","0.7453"
"43.0400","4.1494","0.7463"
"43.1200","4.1561","0.7476"
"43.2000","4.1628","0.7487"
"43.2800","4.1694","0.7499"
"43.3600","4.1761","0.7509"
"43.4400","4.1828","0.7523"
"43.5200","4.1896","0.7533"
"43.6000","4.1962","0.7546"
"43.6800","4.2029","0.7556"
"43.7600","4.2096","0.7570"
"43.8400","4.2162","0.7583"
"43.9200","4.2228","0.7593"
"44.0000","4.2294","0.7605"
"44.0800","4.2363","0.7614"
"44.1600","4.2429","0.7628"
"44.2400","4.2496","0.7639"
"44.3200","4.2563","0.7651"
"44.4000","4.2629","0.7662"
"44.4800","4.2696","0.7673"
"44.5600","4.2761","0.7685"
"44.6400","4.2828","0.7695"
"44.7200","4.2894","0.7708"
"44.8000","4.2963","0.7718"
"44.8800","4.3028","0.7730"
"44.9600","4.3096","0.7747"
"45.0400","4.3163","0.7756"
"45.1200","4.3229","0.7764"
"45.2000","4.3295","0.7779"
"45.2800","4.3361","0.7790"
"45.3600","4.3429","0.7800"
"45.4400","4.3494","0.7813"
"45.5200","4.3562","0.7822"
"45.6000","4.3628","0.7834"
"45.6800","4.3696","0.7845"
"45.7600","4.3762","0.7858"
"45.8400","4.3828","0.7872"
"45.9200","4.3895","0.7883"
"46.0000","4.3961","0.7894"
"46.0800","4.4029","0.7904"
"46.1600","4.4094","0.7917"
"46.2400","4.4162","0.7930"
"46.3200","4.4229","0.7940"
"46.4000","4.4296","0.7950"
"46.4800","4.4362","0.7967"
"46.5600","4.4427","0.7975"
"46.6400","4.4496","0.7985"
"46.7200","4.4561","0.7998"
"46.8000","4.4629","0.8009"
"46.8800","4.4695","0.8023"
"46.9600","4.4763","0.8031"
"47.0400","4.4829","0.8046"
"47.1200","4.4894","0.8055"
"47.2000","4.4962","0.8070"
"47.2800","4.5027","0.8077"
"47.3600","4.5096","0.8094"
"47.4400","4.5161","0.8102"
"47.5200","4.5229","0.8114"
"47.6000","4.5296","0.8127"
"47.6800","4.5362","0.8139"
"47.7600","4.5428","0.8151"
"47.8400","4.5494","0.8159"
"47.9200","4.5562","0.8174"
"48.0000","4.5627","0.8184"
"48.0800","4.5696","0.8198"
"48.1600","4.5762","0.8212"
"48.2400","4.5829","0.8221"
"48.3200","4.5894","0.8233"
"48.4000","4.5961","0.8246"
"48.4800","4.6028","0.8255"
"48.5600","4.6094","0.8268"
"48.6400","4.6161","0.8272"
"48.7200","4.6228","0.8289"
"48.8000","4.6296","0.8299"
"48.8800","4.6362","0.8314"
"48.9600","4.6428","0.8323"
"49.0400","4.6494","0.8333"
"49.1200","4.6561","0.8347"
"49.2000","4.6628","0.8360"
"49.2800","4.6694","0.8373"
"49.3600","4.6761","0.8380"
"49.4400","4.6828","0.8396"
"49.5200","4.6896","0.8406"
"49.6000","4.6962","0.8418"
"49.6800","4.7029","0.8429"
"49.7600","4.7096","0.8446"
"49.8400","4.7161","0.8451"
"49.9200","4.7228","0.8463"
"50.0000","4.7294","0.8475"
"50.0800","4.7363","0.8486"
"50.1600","4.7429","0.8498"
"50.2400","4.7496","0.8512"
"50.3200","4.7562","0.8525"
"50.4000","4.7629","0.8532"
"50.4800","4.7695","0.8544"
"50.5600","4.7761","0.8556"
"50.6400","4.7828","0.8568"
"50.7200","4.7895","0.8576"
"50.8000","4.7963","0.8588"
"50.8800","4.8028","0.8604"
"50.9600","4.8095","0.8615"
"51.0400","4.8163","0.8626"
"51.1200","4.8229","0.8635"
"51.2000","4.8295","0.8647"
"51.2800","4.8361","0.8659"
"51.3600","4.8429","0.8670"
"51.4400","4.8495","0.8681"
"51.5200","4.8561","0.8691"
"51.6000","4.8628","0.8705"
"51.6800","4.8696","0.8718"
"51.7600","4.8762","0.8728"
"51.8400","4.8828","0.8740"
"51.9200","4.8895","0.8751"
"52.0000","4.8962","0.8765"
"52.0800","4.9029","0.8773"
"52.1600","4.9094","0.8788"
"52.2400","4.9162","0.8797"
"52.3200","4.9229","0.8806"
"52.4000","4.9295","0.8821"
"52.4800","4.9361","0.8831"
"52.5600","4.9427","0.8845"
"52.6400","4.9496","0.8856"
"52.7200","4.9561","0.8866"
"52.8000","4.9629","0.8877"
"52.8800","4.9696","0.8892"
"52.9600","4.9763","0.8900"
"53.0400","4.9829","0.8912"
"53.1200","4.9894","0.8923"
"53.2000","4.9962","0.8935"
"53.2800","5.0028","0.8946"
"53.3600","5.0096","0.8956"
"53.4400","5.0161","0.8971"
"53.5200","5.0229","0.8983"
"53.6000","5.0296","0.8990"
"53.6800","5.0362","0.9002"
"53.7600","5.0428","0.9016"
"53.8400","5.0494","0.9026"
"53.9200","5.0562","0.9041"
"54.0000","5.0628","0.9046"
"54.0800","5.0696","0.9066"
"54.1600","5.0761","0.9072"
"54.2400","5.0829","0.9084"
"54.3200","5.0895","0.9098"
"54.4000","5.0961","0.9111"
"54.4800","5.1028","0.9123"
"54.5600","5.1095","0.9134"
"54.6400","5.1161","0.9142"
"54.7200","5.1228","0.9158"
"54.8000","5.1296","0.9168"
"54.8800","5.1362","0.9175"
"54.9600","5.1428","0.9189"
"55.0400","5.1494","0.9202"
"55.1200","5.1561","0.9214"
"55.2000","5.1628","0.9224"
"55.2800","5.1694","0.9238"
"55.3600","5.1761","0.9252"
"55.4400","5.1828","0.9260"
"55.5200","5.1896","0.9271"
"55.6000","5.1962","0.9283"
"55.6800","5.2029","0.9298"
"55.7600","5.2096","0.9313"
"55.8400","5.2161","0.9319"
"55.9200","5.2228","0.9328"
"56.0000","5.2294","0.9341"
"56.0800","5.2363","0.9354"
"56.1600","5.2429","0.9363"
"56.2400","5.2496","0.9376"
"56.3200","5.2562","0.9388"
"56.4000","5.2629","0.9400"
"56.4800","5.2696","0.9410"
"56.5600","5.2761","0.9424"
"56.6400","5.2828","0.9433"
"56.7200","5.2894","0.9445"
"56.8000","5.2963","0.9455"
"56.8800","5.3028","0.9471"
"56.9600","5.3095","0.9477"
"57.0400","5.3162","0.9490"
"57.1200","5.3229","0.9503"
"57.2000","5.3294","0.9514"
"57.2800","5.3361","0.9526"
"57.3600","5.3429","0.9539"
"57.4400","5.3495","0.9546"
"57.5200","5.3562","0.9559"
"57.6000","5.3628","0.9571"
"57.6800","5.3696","0.9587"
"57.7600","5.3762","0.9596"
"57.8400","5.3828","0.9604"
"57.9200","5.3894","0.9617"
"58.0000","5.3961","0.9629"
"58.0800","5.4029","0.9640"
"58.1600","5.4094","0.9650"
"58.2400","5.4162","0.9660"
"58.3200","5.4229","0.9675"
"58.4000","5.4296","0.9686"
"58.4800","5.4361","0.9694"
"58.5600","5.4427","0.9705"
"58.6400","5.4496","0.9718"
"58.7200","5.4563","0.9730"
"58.8000","5.4629","0.9738"
"58.8800","5.4696","0.9751"
"58.9600","5.4763","0.9761"
"59.0400","5.4829","0.9770"
"59.1200","5.4894","0.9781"
"59.2000","5.4962","0.9796"
"59.2800","5.5029","0.9805"
"59.3600","5.5096","0.9815"
"59.4400","5.5161","0.9778"
"59.5200","5.5229","0.9728"
"59.6000","5.5295","0.9740"
"59.6800","5.5362","0.9744"
"59.7600","5.5428","0.9757"
"59.8400","5.5494","0.9766"
"59.9200","5.5562","0.9776"
"60.0000","5.5628","0.9782"
"60.0800","5.5695","0.9796"
"60.1600","5.5761","0.9800"
"60.2400","5.5829","0.9820"
"60.3200","5.5894","0.9829"
"60.4000","5.5961","0.9836"
"60.4800","5.6028","0.9848"
"60.5600","5.6094","0.9860"
"60.6400","5.6161","0.9868"
"60.7200","5.6228","0.9883"
"60.8000","5.6296","0.9890"
"60.8800","5.6363","0.9903"
"60.9600","5.6429","0.9917"
"61.0400","5.6495","0.9927"
"61.1200","5.6561","0.9935"
"61.2000","5.6627","0.9947"
"61.2800","5.6694","0.9959"
"61.3600","5.6762","0.9970"
"61.4400","5.6829","0.9978"
"61.5200","5.6897","0.9991"
"61.6000","5.6962","1.0005"
"61.6800","5.7028","1.0013"
"61.7600","5.7096","1.0024"
"61.8400","5.7162","1.0032"
"61.9200","5.7229","1.0050"
"62.0000","5.7294","1.0058"
"62.0800","5.7363","1.0074"
"62.1600","5.7429","1.0081"
"62.2400","5.7496","1.0093"
"62.3200","5.7562","1.0104"
"62.4000","5.7629","1.0120"
"62.4800","5.7696","1.0125"
"62.5600","5.7761","1.0142"
"62.6400","5.7828","1.0150"
"62.7200","5.7895","1.0160"
"62.8000","5.7962","1.0170"
"62.8800","5.8028","1.0181"
"62.9600","5.8096","1.0193"
"63.0400","5.8163","1.0208"
"63.1200","5.8229","1.0215"
"63.2000","5.8295","1.0226"
"63.2800","5.8361","1.0239"
"63.3600","5.8428","1.0245"
"63.4400","5.8495","1.0259"
"63.5200","5.8562","1.0268"
"63.6000","5.8628","1.0142"
"63.6800","5.8696","1.0137"
"63.7600","5.8762","1.0136"
"63.8400","5.8828","1.0143"
"63.9200","5.8894","1.0153"
"64.0000","5.8962","1.0155"
"64.0800","5.9029","1.0127"
"64.1600","5.9095","1.0133"
"64.2400","5.9162","1.0129"
"64.3200","5.9229","1.0125"
"64.4000","5.9295","1.0130"
"64.4800","5.9361","1.0138"
"64.5600","5.9428","1.0149"
"64.6400","5.9496","1.0154"
"64.7200","5.9562","1.0165"
"64.8000","5.9629","1.0172"
"64.8800","5.9695","1.0183"
"64.9600","5.9762","1.0192"
"65.0400","5.9829","1.0202"
"65.1200","5.9894","1.0211"
"65.2000","5.9963","1.0225"
"65.2800","6.0028","1.0230"
"65.3600","6.0096","1.0239"
"65.4400","6.0161","1.0251"
"65.5200","6.0229","1.0257"
"65.6000","6.0296","1.0268"
"65.6800","6.0362","1.0275"
"65.7600","6.0428","1.0287"
"65.8400","6.0494","1.0302"
"65.9200","6.0562","1.0308"
"66.0000","6.0627","1.0321"
"66.0800","6.0695","1.0331"
"66.1600","6.0762","1.0339"
"66.2400","6.0830","1.0349"
"66.3200","6.0894","1.0363"
"66.4000","6.0962","1.0371"
"66.4800","6.1028","1.0382"
"66.5600","6.1094","1.0391"
"66.6400","6.1161","1.0403"
"66.7200","6.1228","1.0410"
"66.8000","6.1296","1.0423"
"66.8800","6.1362","1.0430"
"66.9600","6.1429","1.0441"
"67.0400","6.1494","1.0454"
"67.1200","6.1561","1.0461"
"67.2000","6.1628","1.0468"
"67.2800","6.1694","1.0430"
"67.3600","6.1762","1.0334"
"67.4400","6.1829","1.0338"
"67.5200","6.1896","1.0235"
"67.6000","6.1962","1.0152"
"67.6800","6.2029","1.0150"
"67.7600","6.2096","1.0152"
"67.8400","6.2162","1.0155"
"67.9200","6.2228","1.0163"
"68.0000","6.2294","1.0165"
"68.0800","6.2362","1.0175"
"68.1600","6.2429","1.0184"
"68.2400","6.2496","1.0191"
"68.3200","6.2563","1.0196"
"68.4000","6.2629","1.0210"
"68.4800","6.2696","1.0220"
"68.5600","6.2761","1.0225"
"68.6400","6.2828","1.0237"
"68.7200","6.2894","1.0249"
"68.8000","6.2962","1.0255"
"68.8800","6.3027","1.0262"
"68.9600","6.3096","1.0272"
"69.0400","6.3163","1.0286"
"69.1200","6.3229","1.0292"
"69.2000","6.3294","1.0306"
"69.2800","6.3361","1.0318"
"69.3600","6.3429","1.0325"
"69.4400","6.3495","1.0337"
"69.5200","6.3562","1.0345"
"69.6000","6.3627","1.0357"
"69.6800","6.3696","1.0366"
"69.7600","6.3761","1.0376"
"69.8400","6.3828","1.0386"
"69.9200","6.3895","1.0397"
"70.0000","6.3962","1.0407"
"70.0800","6.4029","1.0415"
"70.1600","6.4094","1.0428"
"70.2400","6.4162","1.0435"
"70.3200","6.4229","1.0446"
"70.4000","6.4295","1.0454"
"70.4800","6.4361","1.0467"
"70.5600","6.4428","1.0475"
"70.6400","6.4495","1.0486"
"70.7200","6.4561","1.0497"
"70.8000","6.4629","1.0508"
"70.8800","6.4695","1.0518"
"70.9600","6.4763","1.0529"
"71.0400","6.4829","1.0538"
"71.1200","6.4894","1.0547"
"71.2000","6.4962","1.0556"
"71.2800","6.5028","1.0565"
"71.3600","6.5096","1.0579"
"71.4400","6.5161","1.0584"
"71.5200","6.5229","1.0595"
"71.6000","6.5296","1.0608"
"71.6800","6.5363","1.0616"
"71.7600","6.5428","1.0624"
"71.8400","6.5494","1.0638"
"71.9200","6.5562","1.0641"
"72.0000","6.5628","1.0654"
"72.0800","6.5695","1.0667"
"72.1600","6.5762","1.0677"
"72.2400","6.5829","1.0684"
"72.3200","6.5895","1.0694"
"72.4000","6.5961","1.0702"
"72.4800","6.6028","1.0713"
"72.5600","6.6094","1.0721"
"72.6400","6.6161","1.0730"
"72.7200","6.6228","1.0738"
"72.8000","6.6296","1.0750"
"72.8800","6.6362","1.0757"
"72.9600","6.6428","1.0743"
"73.0400","6.6494","1.0752"
"73.1200","6.6562","1.0759"
"73.2000","6.6629","1.0764"
"73.2800","6.6694","1.0773"
"73.3600","6.6762","1.0780"
"73.4400","6.6829","1.0784"
"73.5200","6.6896","1.0796"
"73.6000","6.6962","1.0805"
"73.6800","6.7028","1.0813"
"73.7600","6.7096","1.0820"
"73.8400","6.7162","1.0828"
"73.9200","6.7228","1.0834"
"74.0000","6.7294","1.0845"
"74.0800","6.7362","1.0854"
"74.1600","6.7429","1.0861"
"74.2400","6.7496","1.0866"
"74.3200","6.7562","1.0875"
"74.4000","6.7629","1.0858"
"74.4800","6.7696","1.0856"
"74.5600","6.7761","1.0860"
"74.6400","6.7828","1.0860"
"74.7200","6.7894","1.0869"
"74.8000","6.7963","1.0872"
"74.8800","6.8028","1.0877"
"74.9600","6.8095","1.0883"
"75.0400","6.8163","1.0894"
"75.1200","6.8229","1.0898"
"75.2000","6.8295","1.0908"
"75.2800","6.8361","1.0910"
"75.3600","6.8429","1.0921"
"75.4400","6.8495","1.0926"
"75.5200","6.8563","1.0937"
"75.6000","6.8628","1.0942"
"75.6800","6.8696","1.0951"
"75.7600","6.8762","1.0958"
"75.8400","6.8828","1.0968"
"75.9200","6.8895","1.0979"
"76.0000","6.8961","1.0986"
"76.0800","6.9029","1.0993"
"76.1600","6.9094","1.1001"
"76.2400","6.9161","1.1009"
"76.3200","6.9229","1.1015"
"76.4000","6.9295","1.1026"
"76.4800","6.9362","1.1034"
"76.5600","6.9427","1.1042"
"76.6400","6.9496","1.1050"
"76.7200","6.9561","1.1055"
"76.8000","6.9628","1.0997"
"76.8800","6.9694","1.1002"
"76.9600","6.9762","1.1006"
"77.0400","6.9829","1.1009"
"77.1200","6.9894","1.1021"
"77.2000","6.9962","1.1028"
"77.2800","7.0028","1.1034"
"77.3600","7.0096","1.1042"
"77.4400","7.0162","1.1048"
"77.5200","7.0229","1.1055"
"77.6000","7.0296","1.1062"
"77.6800","7.0362","1.1071"
"77.7600","7.0428","1.1078"
"77.8400","7.0494","1.1087"
"77.9200","7.0562","1.1095"
"78.0000","7.0628","1.1102"
"78.0800","7.0696","1.1112"
"78.1600","7.0762","1.1118"
"78.2400","7.0829","1.1129"
"78.3200","7.0895","1.1140"
"78.4000","7.0961","1.1147"
"78.4800","7.1028","1.1154"
"78.5600","7.1094","1.1163"
"78.6400","7.1161","1.1170"
"78.7200","7.1228","1.1175"
"78.8000","7.1296","1.1188"
"78.8800","7.1362","1.1193"
"78.9600","7.1429","1.1204"
"79.0400","7.1495","1.1215"
"79.1200","7.1561","1.1220"
"79.2000","7.1628","1.1227"
"79.2800","7.1694","1.1239"
"79.3600","7.1761","1.1249"
"79.4400","7.1828","1.1242"
"79.5200","7.1896","1.1238"
"79.6000","7.1962","1.1237"
"79.6800","7.2028","1.1238"
"79.7600","7.2096","1.1244"
"79.8400","7.2162","1.1247"
"79.9200","7.2228","1.1252"
"80.0000","7.2294","1.1259"
"80.0800","7.2363","1.1260"
"80.1600","7.2429","1.1268"
"80.2400","7.2496","1.1276"
"80.3200","7.2562","1.1280"
"80.4000","7.2629","1.1286"
"80.4800","7.2696","1.1295"
"80.5600","7.2761","1.1299"
"80.6400","7.2828","1.1308"
"80.7200","7.2894","1.1312"
"80.8000","7.2963","1.1322"
"80.8800","7.3028","1.1330"
"80.9600","7.3095","1.1337"
"81.0400","7.3163","1.1340"
"81.1200","7.3229","1.1353"
"81.2000","7.3295","1.1356"
"81.2800","7.3361","1.1312"
"81.3600","7.3428","1.1240"
"81.4400","7.3495","1.1189"
"81.5200","7.3562","1.1170"
"81.6000","7.3628","1.1154"
"81.6800","7.3696","1.1151"
"81.7600","7.3762","1.1146"
"81.8400","7.3828","1.1147"
"81.9200","7.3894","1.1146"
"82.0000","7.3961","1.1148"
"82.0800","7.4028","1.1150"
"82.1600","7.4095","1.1154"
"82.2400","7.4162","1.1159"
"82.3200","7.4228","1.1161"
"82.4000","7.4294","1.1163"
"82.4800","7.4361","1.1170"
"82.5600","7.4427","1.1177"
"82.6400","7.4496","1.1182"
"82.7200","7.4562","1.1185"
"82.8000","7.4629","1.1190"
"82.8800","7.4695","1.1198"
"82.9600","7.4763","1.1204"
"83.0400","7.4829","1.1207"
"83.1200","7.4894","1.1217"
"83.2000","7.4962","1.1223"
"83.2800","7.5029","1.1226"
"83.3600","7.5097","1.1232"
"83.4400","7.5161","1.1238"
"83.5200","7.5229","1.1246"
"83.6000","7.5295","1.1252"
"83.6800","7.5362","1.1260"
"83.7600","7.5428","1.1264"
"83.8400","7.5494","1.1273"
"83.9200","7.5563","1.1279"
"84.0000","7.5627","1.1286"
"84.0800","7.5696","1.1293"
"84.1600","7.5762","1.1301"
"84.2400","7.5829","1.1306"
"84.3200","7.5894","1.1314"
"84.4000","7.5961","1.1321"
"84.4800","7.6028","1.1326"
"84.5600","7.6094","1.1332"
"84.6400","7.6161","1.1345"
"84.7200","7.6227","1.1351"
"84.8000","7.6296","1.1355"
"84.8800","7.6362","1.1360"
"84.9600","7.6429","1.1370"
"85.0400","7.6494","1.1378"
"85.1200","7.6561","1.1385"
"85.2000","7.6628","1.1395"
"85.2800","7.6693","1.1402"
"85.3600","7.6761","1.1407"
"85.4400","7.6829","1.1415"
"85.5200","7.6896","1.1422"
"85.6000","7.6962","1.1431"
"85.6800","7.7028","1.1436"
"85.7600","7.7096","1.1437"
"85.8400","7.7161","1.1443"
"85.9200","7.7228","1.1451"
"86.0000","7.7294","1.1457"
"86.0800","7.7363","1.1460"
"86.1600","7.7429","1.1466"
"86.2400","7.7496","1.1477"
"86.3200","7.7562","1.1483"
"86.4000","7.7629","1.1486"
"86.4800","7.7696","1.1497"
"86.5600","7.7761","1.1505"
"86.6400","7.7828","1.1508"
"86.7200","7.7894","1.1515"
"86.8000","7.7963","1.1527"
"86.8800","7.8028","1.1529"
"86.9600","7.8095","1.1539"
"87.0400","7.8163","1.1548"
"87.1200","7.8229","1.1451"
"87.2000","7.8295","1.1441"
"87.2800","7.8361","1.1432"
"87.3600","7.8429","1.1430"
"87.4400","7.8495","1.1428"
"87.5200","7.8562","1.1427"
"87.6000","7.8628","1.1428"
"87.6800","7.8696","1.1428"
"87.7600","7.8762","1.1428"
"87.8400","7.8828","1.1382"
"87.9200","7.8895","1.1352"
"88.0000","7.8962","1.1325"
"88.0800","7.9029","1.1315"
"88.1600","7.9094","1.1309"
"88.2400","7.9162","1.1304"
"88.3200","7.9229","1.1302"
"88.4000","7.9295","1.1296"
"88.4800","7.9361","1.1295"
"88.5600","7.9427","1.1299"
"88.6400","7.9496","1.1299"
"88.7200","7.9561","1.1296"
"88.8000","7.9629","1.1296"
"88.8800","7.9695","1.1298"
"88.9600","7.9762","1.1235"
"89.0400","7.9829","1.1234"
"89.1200","7.9894","1.1234"
"89.2000","7.9962","1.1237"
"89.2800","8.0029","1.1238"
"89.3600","8.0096","1.1244"
"89.4400","8.0161","1.1247"
"89.5200","8.0229","1.1249"
"89.6000","8.0295","1.1230"
"89.6800","8.0361","1.1225"
"89.7600","8.0428","1.1225"
"89.8400","8.0495","1.1229"
"89.9200","8.0562","1.1231"
"90.0000","8.0627","1.1216"
"90.0800","8.0696","1.1211"
"90.1600","8.0762","1.1213"
"90.2400","8.0829","1.1207"
"90.3200","8.0894","1.1213"
"90.4000","8.0962","1.1213"
"90.4800","8.1028","1.1210"
"90.5600","8.1094","1.1194"
"90.6400","8.1161","1.1192"
"90.7200","8.1228","1.1186"
"90.8000","8.1296","1.1187"
"90.8800","8.1363","1.1189"
"90.9600","8.1428","1.1189"
"91.0400","8.1494","1.1188"
"91.1200","8.1562","1.1192"
"91.2000","8.1628","1.1194"
"91.2800","8.1694","1.1198"
"91.3600","8.1761","1.1200"
"91.4400","8.1829","1.1206"
"91.5200","8.1896","1.1205"
"91.6000","8.1962","1.1209"
"91.6800","8.2028","1.1214"
"91.7600","8.2096","1.1223"
"91.8400","8.2161","1.1224"
"91.9200","8.2228","1.1232"
"92.0000","8.2294","1.1234"
"92.0800","8.2363","1.1238"
"92.1600","8.2429","1.1243"
"92.2400","8.2495","1.1249"
"92.3200","8.2562","1.1250"
"92.4000","8.2629","1.1256"
"92.4800","8.2696","1.1259"
"92.5600","8.2761","1.1264"
"92.6400","8.2828","1.1264"
"92.7200","8.2894","1.1269"
"92.8000","8.2963","1.1273"
"92.8800","8.3027","1.1275"
"92.9600","8.3096","1.1285"
"93.0400","8.3163","1.1284"
"93.1200","8.3229","1.1293"
"93.2000","8.3295","1.1295"
"93.2800","8.3361","1.1302"
"93.3600","8.3429","1.1307"
"93.4400","8.3495","1.1313"
"93.5200","8.3562","1.1314"
"93.6000","8.3628","1.1323"
"93.6800","8.3696","1.1332"
"93.7600","8.3762","1.1338"
"93.8400","8.3828","1.1341"
"93.9200","8.3894","1.1347"
"94.0000","8.3961","1.1355"
"94.0800","8.4029","1.1356"
"94.1600","8.4094","1.1362"
"94.2400","8.4162","1.1367"
"94.3200","8.4229","1.1380"
"94.4000","8.4295","1.1381"
"94.4800","8.4361","1.1366"
"94.5600","8.4427","1.1365"
"94.6400","8.4496","1.1361"
"94.7200","8.4562","1.1358"
"94.8000","8.4629","1.1360"
"94.8800","8.4695","1.1361"
"94.9600","8.4762","1.1359"
"95.0400","8.4829","1.1364"
"95.1200","8.4894","1.1369"
"95.2000","8.4963","1.1368"
"95.2800","8.5028","1.1370"
"95.3600","8.5096","1.1373"
"95.4400","8.5161","1.1376"
"95.5200","8.5229","1.1377"
"95.6000","8.5296","1.1386"
"95.6800","8.5363","1.1306"
"95.7600","8.5428","1.1279"
"95.8400","8.5494","1.1264"
"95.9200","8.5562","1.1249"
"96.0000","8.5627","1.1241"
"96.0800","8.5696","1.1233"
"96.1600","8.5762","1.1231"
"96.2400","8.5830","1.1224"
"96.3200","8.5895","1.1222"
"96.4000","8.5961","1.1221"
"96.4800","8.6028","1.1219"
"96.5600","8.6094","1.1214"
"96.6400","8.6161","1.1219"
"96.7200","8.6228","1.1216"
"96.8000","8.6296","1.1219"
"96.8800","8.6362","1.1219"
"96.9600","8.6429","1.1223"
"97.0400","8.6495","1.1220"
"97.1200","8.6561","1.1222"
"97.2000","8.6629","1.1221"
"97.2800","8.6694","1.1230"
"97.3600","8.6761","1.1230"
"97.4400","8.6829","1.1231"
"97.5200","8.6896","1.1233"
"97.6000","8.6962","1.1232"
"97.6800","8.7029","1.1239"
"97.7600","8.7096","1.1247"
"97.8400","8.7162","1.1245"
"97.9200","8.7229","1.1248"
"98.0000","8.7294","1.1254"
"98.0800","8.7362","1.1257"
"98.1600","8.7429","1.1263"
"98.2400","8.7496","1.1263"
"98.3200","8.7562","1.1267"
"98.4000","8.7629","1.1273"
"98.4800","8.7696","1.1278"
"98.5600","8.7761","1.1279"
"98.6400","8.7828","1.1283"
"98.7200","8.7894","1.1287"
"98.8000","8.7963","1.1292"
"98.8800","8.8028","1.1291"
"98.9600","8.8095","1.1300"
"99.0400","8.8163","1.1281"
"99.1200","8.8229","1.1248"
"99.2000","8.8294","1.1238"
"99.2800","8.8361","1.1233"
"99.3600","8.8429","1.1229"
"99.4400","8.8496","1.1228"
"99.5200","8.8563","1.1221"
"99.6000","8.8628","1.1225"
"99.6800","8.8696","1.1222"
"99.7600","8.8761","1.1221"
"99.8400","8.8828","1.1222"
"99.9200","8.8895","1.1222"
"100.0000","8.8962","1.1225"
"100.0800","8.9029","1.1226"
"100.1600","8.9094","1.1226"
"100.2400","8.9162","1.1232"
"100.3200","8.9229","1.1228"
"100.4000","8.9295","1.1236"
"100.4800","8.9361","1.1234"
"100.5600","8.9427","1.1234"
"100.6400","8.9496","1.1240"
"100.7200","8.9562","1.1243"
"100.8000","8.9629","1.1246"
"100.8800","8.9695","1.1249"
"100.9600","8.9762","1.1251"
"101.0400","8.9829","1.1253"
"101.1200","8.9894","1.1258"
"101.2000","8.9962","1.1243"
"101.2800","9.0028","1.1239"
"101.3600","9.0096","1.1234"
"101.4400","9.0161","1.1227"
"101.5200","9.0229","1.1198"
"101.6000","9.0296","1.1184"
"101.6800","9.0362","1.1164"
"101.7600","9.0428","1.1124"
"101.8400","9.0494","1.1098"
"101.9200","9.0562","1.1087"
"102.0000","9.0627","1.1073"
"102.0800","9.0696","1.1059"
"102.1600","9.0762","1.1048"
"102.2400","9.0829","1.1036"
"102.3200","9.0895","1.1033"
"102.4000","9.0962","1.1023"
"102.4800","9.1028","1.1016"
"102.5600","9.1095","1.1009"
"102.6400","9.1161","1.1004"
"102.7200","9.1228","1.0997"
"102.8000","9.1296","1.0993"
"102.8800","9.1363","1.0991"
"102.9600","9.1428","1.0987"
"103.0400","9.1494","1.0985"
"103.1200","9.1561","1.0981"
"103.2000","9.1628","1.0978"
"103.2800","9.1694","1.0976"
"103.3600","9.1761","1.0974"
"103.4400","9.1829","1.0974"
"103.5200","9.1896","1.0971"
"103.6000","9.1962","1.0972"
"103.6800","9.2029","1.0972"
"103.7600","9.2096","1.0975"
"103.8400","9.2162","1.0971"
"103.9200","9.2228","1.0973"
"104.0000","9.2294","1.0970"
"104.0800","9.2362","1.0973"
"104.1600","9.2429","1.0975"
"104.2400","9.2496","1.0977"
"104.3200","9.2562","1.0976"
"104.4000","9.2629","1.0977"
"104.4800","9.2696","1.0983"
"104.5600","9.2760","1.0975"
"104.6400","9.2828","1.0934"
"104.7200","9.2894","1.0919"
"104.8000","9.2962","1.0905"
"104.8800","9.3028","1.0899"
"104.9600","9.3096","1.0889"
"105.0400","9.3163","1.0885"
"105.1200","9.3229","1.0881"
"105.2000","9.3294","1.0873"
"105.2800","9.3361","1.0873"
"105.3600","9.3429","1.0862"
"105.4400","9.3496","1.0862"
"105.5200","9.3562","1.0853"
"105.6000","9.3628","1.0851"
"105.6800","9.3696","1.0849"
"105.7600","9.3762","1.0833"
"105.8400","9.3828","1.0821"
"105.9200","9.3895","1.0746"
"106.0000","9.3962","1.0683"
"106.0800","9.4029","1.0673"
"106.1600","9.4094","1.0662"
"106.2400","9.4162","1.0628"
"106.3200","9.4229","1.0318"
"106.4000","9.4296","1.0136"
"106.4660","9.4352","0.6049"