File: flexural/ES100_Trevor_Flexural_Data_3_1.csv
Specimen text inputs : Specimen text input  1,,""

Results Table 1
,Specimen text input  1
"3","b45_f1"

Results Table 2

Time,Displacement,Force
(s),(mm),(kN)
"0.0000","1.6673","0.0202"
"0.0800","1.6761","0.0229"
"0.1600","1.6800","0.0232"
"0.2400","1.6863","0.0238"
"0.3200","1.6927","0.0248"
"0.4000","1.6995","0.0258"
"0.4800","1.7061","0.0269"
"0.5600","1.7129","0.0279"
"0.6400","1.7195","0.0288"
"0.7200","1.7263","0.0293"
"0.8000","1.7328","0.0308"
"0.8800","1.7394","0.0317"
"0.9600","1.7462","0.0326"
"1.0400","1.7528","0.0336"
"1.1200","1.7596","0.0345"
"1.2000","1.7661","0.0357"
"1.2800","1.7729","0.0365"
"1.3600","1.7795","0.0377"
"1.4400","1.7862","0.0389"
"1.5200","1.7929","0.0397"
"1.6000","1.7995","0.0405"
"1.6800","1.8062","0.0417"
"1.7600","1.8127","0.0431"
"1.8400","1.8195","0.0435"
"1.9200","1.8261","0.0446"
"2.0000","1.8329","0.0457"
"2.0800","1.8395","0.0469"
"2.1600","1.8462","0.0476"
"2.2400","1.8528","0.0487"
"2.3200","1.8594","0.0497"
"2.4000","1.8661","0.0506"
"2.4800","1.8728","0.0517"
"2.5600","1.8796","0.0528"
"2.6400","1.8862","0.0539"
"2.7200","1.8929","0.0548"
"2.8000","1.8994","0.0558"
"2.8800","1.9061","0.0570"
"2.9600","1.9128","0.0582"
"3.0400","1.9194","0.0591"
"3.1200","1.9261","0.0599"
"3.2000","1.9328","0.0612"
"3.2800","1.9396","0.0622"
"3.3600","1.9461","0.0635"
"3.4400","1.9529","0.0645"
"3.5200","1.9596","0.0656"
"3.6000","1.9662","0.0664"
"3.6800","1.9728","0.0675"
"3.7600","1.9794","0.0692"
"3.8400","1.9863","0.0694"
"3.9200","1.9929","0.0710"
"4.0000","1.9996","0.0717"
"4.0800","2.0063","0.0730"
"4.1600","2.0129","0.0743"
"4.2400","2.0196","0.0749"
"4.3200","2.0261","0.0759"
"4.4000","2.0328","0.0776"
"4.4800","2.0395","0.0785"
"4.5600","2.0463","0.0792"
"4.6400","2.0528","0.0806"
"4.7200","2.0596","0.0817"
"4.8000","2.0663","0.0827"
"4.8800","2.0729","0.0838"
"4.9600","2.0795","0.0848"
"5.0400","2.0861","0.0857"
"5.1200","2.0929","0.0870"
"5.2000","2.0995","0.0878"
"5.2800","2.1062","0.0890"
"5.3600","2.1128","0.0899"
"5.4400","2.1196","0.0906"
"5.5200","2.1262","0.0921"
"5.6000","2.1328","0.0932"
"5.6800","2.1395","0.0942"
"5.7600","2.1461","0.0955"
"5.8400","2.1529","0.0961"
"5.9200","2.1594","0.0973"
"6.0000","2.1662","0.0986"
"6.0800","2.1729","0.0997"
"6.1600","2.1795","0.1006"
"6.2400","2.1861","0.1015"
"6.3200","2.1927","0.1031"
"6.4000","2.1996","0.1039"
"6.4800","2.2061","0.1048"
"6.5600","2.2129","0.1060"
"6.6400","2.2195","0.1070"
"6.7200","2.2262","0.1083"
"6.8000","2.2329","0.1093"
"6.8800","2.2394","0.1105"
"6.9600","2.2462","0.1111"
"7.0400","2.2528","0.1128"
"7.1200","2.2596","0.1135"
"7.2000","2.2661","0.1143"
"7.2800","2.2729","0.1157"
"7.3600","2.2796","0.1167"
"7.4400","2.2863","0.1175"
"7.5200","2.2928","0.1187"
"7.6000","2.2994","0.1198"
"7.6800","2.3062","0.1207"
"7.7600","2.3128","0.1217"
"7.8400","2.3196","0.1229"
"7.9200","2.3262","0.1242"
"8.0000","2.3330","0.1252"
"8.0800","2.3394","0.1261"
"8.1600","2.3461","0.1273"
"8.2400","2.3528","0.1282"
"8.3200","2.3594","0.1292"
"8.4000","2.3661","0.1303"
"8.4800","2.3728","0.1314"
"8.5600","2.3796","0.1326"
"8.6400","2.3863","0.1330"
"8.7200","2.3929","0.1343"
"8.8000","2.3994","0.1355"
"8.8800","2.4061","0.1362"
"8.9600","2.4128","0.1377"
"9.0400","2.4194","0.1386"
"9.1200","2.4261","0.1397"
"9.2000","2.4328","0.1405"
"9.2800","2.4396","0.1418"
"9.3600","2.4461","0.1427"
"9.4400","2.4528","0.1444"
"9.5200","2.4596","0.1447"
"9.6000","2.4662","0.1458"
"9.6800","2.4729","0.1464"
"9.7600","2.4794","0.1480"
"9.8400","2.4862","0.1487"
"9.9200","2.4929","0.1502"
"10.0000","2.4996","0.1507"
"10.0800","2.5063","0.1520"
"10.1600","2.5129","0.1536"
"10.2400","2.5196","0.1547"
"10.3200","2.5261","0.1552"
"10.4000","2.5328","0.1565"
"10.4800","2.5394","0.1577"
"10.5600","2.5463","0.1585"
"10.6400","2.5528","0.1599"
"10.7200","2.5596","0.1607"
"10.8000","2.5663","0.1617"
"10.8800","2.5729","0.1628"
"10.9600","2.5794","0.1637"
"11.0400","2.5861","0.1649"
"11.1200","2.5929","0.1662"
"11.2000","2.5995","0.1672"
"11.2800","2.6063","0.1680"
"11.3600","2.6128","0.1692"
"11.4400","2.6196","0.1702"
"11.5200","2.6262","0.1712"
"11.6000","2.6328","0.1724"
"11.6800","2.6395","0.1734"
"11.7600","2.6462","0.1743"
"11.8400","2.6529","0.1755"
"11.9200","2.6594","0.1766"
"12.0000","2.6662","0.1776"
"12.0800","2.6728","0.1786"
"12.1600","2.6795","0.1799"
"12.2400","2.6861","0.1805"
"12.3200","2.6928","0.1814"
"12.4000","2.6996","0.1828"
"12.4800","2.7061","0.1838"
"12.5600","2.7129","0.1849"
"12.6400","2.7195","0.1859"
"12.7200","2.7263","0.1869"
"12.8000","2.7328","0.1882"
"12.8800","2.7394","0.1893"
"12.9600","2.7462","0.1899"
"13.0400","2.7528","0.1913"
"13.1200","2.7596","0.1920"
"13.2000","2.7661","0.1931"
"13.2800","2.7729","0.1942"
"13.3600","2.7796","0.1952"
"13.4400","2.7862","0.1960"
"13.5200","2.7928","0.1975"
"13.6000","2.7994","0.1985"
"13.6800","2.8062","0.1991"
"13.7600","2.8128","0.2008"
"13.8400","2.8196","0.2016"
"13.9200","2.8262","0.2022"
"14.0000","2.8329","0.2038"
"14.0800","2.8394","0.2047"
"14.1600","2.8462","0.2058"
"14.2400","2.8528","0.2067"
"14.3200","2.8594","0.2076"
"14.4000","2.8661","0.2089"
"14.4800","2.8728","0.2099"
"14.5600","2.8796","0.2108"
"14.6400","2.8863","0.2113"
"14.7200","2.8929","0.2126"
"14.8000","2.8994","0.2138"
"14.8800","2.9061","0.2147"
"14.9600","2.9128","0.2158"
"15.0400","2.9194","0.2171"
"15.1200","2.9262","0.2180"
"15.2000","2.9329","0.2188"
"15.2800","2.9396","0.2201"
"15.3600","2.9462","0.2210"
"15.4400","2.9529","0.2221"
"15.5200","2.9596","0.2232"
"15.6000","2.9662","0.2240"
"15.6800","2.9728","0.2250"
"15.7600","2.9793","0.2265"
"15.8400","2.9862","0.2271"
"15.9200","2.9929","0.2282"
"16.0000","2.9996","0.2293"
"16.0800","3.0063","0.2300"
"16.1600","3.0129","0.2312"
"16.2400","3.0196","0.2320"
"16.3200","3.0261","0.2332"
"16.4000","3.0328","0.2340"
"16.4800","3.0395","0.2354"
"16.5600","3.0463","0.2361"
"16.6400","3.0527","0.2376"
"16.7200","3.0595","0.2386"
"16.8000","3.0662","0.2391"
"16.8800","3.0729","0.2403"
"16.9600","3.0795","0.2413"
"17.0400","3.0861","0.2430"
"17.1200","3.0929","0.2430"
"17.2000","3.0995","0.2444"
"17.2800","3.1062","0.2453"
"17.3600","3.1128","0.2461"
"17.4400","3.1196","0.2476"
"17.5200","3.1262","0.2485"
"17.6000","3.1328","0.2493"
"17.6800","3.1395","0.2506"
"17.7600","3.1462","0.2513"
"17.8400","3.1529","0.2525"
"17.9200","3.1594","0.2535"
"18.0000","3.1661","0.2546"
"18.0800","3.1729","0.2555"
"18.1600","3.1795","0.2562"
"18.2400","3.1861","0.2573"
"18.3200","3.1927","0.2582"
"18.4000","3.1996","0.2592"
"18.4800","3.2061","0.2602"
"18.5600","3.2129","0.2611"
"18.6400","3.2195","0.2621"
"18.7200","3.2263","0.2635"
"18.8000","3.2329","0.2643"
"18.8800","3.2394","0.2653"
"18.9600","3.2462","0.2665"
"19.0400","3.2528","0.2675"
"19.1200","3.2596","0.2683"
"19.2000","3.2661","0.2694"
"19.2800","3.2729","0.2707"
"19.3600","3.2796","0.2716"
"19.4400","3.2862","0.2725"
"19.5200","3.2928","0.2733"
"19.6000","3.2994","0.2746"
"19.6800","3.3062","0.2754"
"19.7600","3.3128","0.2768"
"19.8400","3.3196","0.2774"
"19.9200","3.3262","0.2785"
"20.0000","3.3330","0.2797"
"20.0800","3.3394","0.2805"
"20.1600","3.3461","0.2818"
"20.2400","3.3528","0.2828"
"20.3200","3.3595","0.2834"
"20.4000","3.3661","0.2844"
"20.4800","3.3728","0.2860"
"20.5600","3.3796","0.2867"
"20.6400","3.3862","0.2877"
"20.7200","3.3929","0.2883"
"20.8000","3.3994","0.2896"
"20.8800","3.4061","0.2905"
"20.9600","3.4128","0.2919"
"21.0400","3.4194","0.2927"
"21.1200","3.4261","0.2937"
"21.2000","3.4328","0.2950"
"21.2800","3.4396","0.2957"
"21.3600","3.4462","0.2968"
"21.4400","3.4529","0.2978"
"21.5200","3.4596","0.2987"
"21.6000","3.4661","0.2998"
"21.6800","3.4728","0.3003"
"21.7600","3.4794","0.3017"
"21.8400","3.4863","0.3023"
"21.9200","3.4929","0.3036"
"22.0000","3.4996","0.3047"
"22.0800","3.5063","0.3052"
"22.1600","3.5129","0.3067"
"22.2400","3.5196","0.3074"
"22.3200","3.5261","0.3083"
"22.4000","3.5328","0.3100"
"22.4800","3.5395","0.3102"
"22.5600","3.5463","0.3112"
"22.6400","3.5528","0.3125"
"22.7200","3.5596","0.3130"
"22.8000","3.5663","0.3145"
"22.8800","3.5729","0.3153"
"22.9600","3.5795","0.3160"
"23.0400","3.5861","0.3172"
"23.1200","3.5929","0.3179"
"23.2000","3.5995","0.3193"
"23.2800","3.6061","0.3201"
"23.3600","3.6128","0.3210"
"23.4400","3.6196","0.3223"
"23.5200","3.6262","0.3232"
"23.6000","3.6328","0.3240"
"23.6800","3.6395","0.3250"
"23.7600","3.6461","0.3256"
"23.8400","3.6529","0.3267"
"23.9200","3.6595","0.3281"
"24.0000","3.6662","0.3288"
"24.0800","3.6729","0.3301"
"24.1600","3.6795","0.3307"
"24.2400","3.6861","0.3319"
"24.3200","3.6928","0.3327"
"24.4000","3.6995","0.3336"
"24.4800","3.7062","0.3347"
"24.5600","3.7129","0.3355"
"24.6400","3.7195","0.3362"
"24.7200","3.7262","0.3372"
"24.8000","3.7329","0.3385"
"24.8800","3.7394","0.3395"
"24.9600","3.7462","0.3399"
"25.0400","3.7528","0.3415"
"25.1200","3.7596","0.3423"
"25.2000","3.7661","0.3430"
"25.2800","3.7729","0.3440"
"25.3600","3.7795","0.3450"
"25.4400","3.7861","0.3460"
"25.5200","3.7928","0.3468"
"25.6000","3.7994","0.3479"
"25.6800","3.8063","0.3488"
"25.7600","3.8128","0.3499"
"25.8400","3.8196","0.3507"
"25.9200","3.8261","0.3513"
"26.0000","3.8330","0.3527"
"26.0800","3.8395","0.3537"
"26.1600","3.8462","0.3543"
"26.2400","3.8528","0.3555"
"26.3200","3.8594","0.3560"
"26.4000","3.8661","0.3572"
"26.4800","3.8728","0.3583"
"26.5600","3.8796","0.3591"
"26.6400","3.8862","0.3601"
"26.7200","3.8929","0.3613"
"26.8000","3.8995","0.3614"
"26.8800","3.9061","0.3627"
"26.9600","3.9128","0.3642"
"27.0400","3.9194","0.3643"
"27.1200","3.9262","0.3656"
"27.2000","3.9329","0.3667"
"27.2800","3.9396","0.3679"
"27.3600","3.9462","0.3689"
"27.4400","3.9528","0.3694"
"27.5200","3.9596","0.3705"
"27.6000","3.9662","0.3712"
"27.6800","3.9729","0.3719"
"27.7600","3.9794","0.3738"
"27.8400","3.9863","0.3742"
"27.9200","3.9929","0.3752"
"28.0000","3.9996","0.3760"
"28.0800","4.0061","0.3768"
"28.1600","4.0128","0.3782"
"28.2400","4.0196","0.3786"
"28.3200","4.0261","0.3802"
"28.4000","4.0328","0.3805"
"28.4800","4.0395","0.3820"
"28.5600","4.0463","0.3825"
"28.6400","4.0528","0.3839"
"28.7200","4.0595","0.3848"
"28.8000","4.0662","0.3852"
"28.8800","4.0729","0.3870"
"28.9600","4.0795","0.3874"
"29.0400","4.0861","0.3886"
"29.1200","4.0929","0.3891"
"29.2000","4.0995","0.3903"
"29.2800","4.1062","0.3911"
"29.3600","4.1128","0.3921"
"29.4400","4.1196","0.3932"
"29.5200","4.1262","0.3941"
"29.6000","4.1328","0.3950"
"29.6800","4.1394","0.3958"
"29.7600","4.1461","0.3968"
"29.8400","4.1529","0.3979"
"29.9200","4.1594","0.3988"
"30.0000","4.1662","0.3996"
"30.0800","4.1729","0.4004"
"30.1600","4.1795","0.4018"
"30.2400","4.1861","0.4024"
"30.3200","4.1927","0.4033"
"30.4000","4.1996","0.4047"
"30.4800","4.2062","0.4053"
"30.5600","4.2129","0.4063"
"30.6400","4.2195","0.4068"
"30.7200","4.2262","0.4078"
"30.8000","4.2329","0.4094"
"30.8800","4.2395","0.4109"
"30.9600","4.2462","0.4115"
"31.0400","4.2528","0.4121"
"31.1200","4.2596","0.4129"
"31.2000","4.2661","0.4139"
"31.2800","4.2729","0.4151"
"31.3600","4.2795","0.4160"
"31.4400","4.2862","0.4167"
"31.5200","4.2928","0.4176"
"31.6000","4.2994","0.4187"
"31.6800","4.3062","0.4194"
"31.7600","4.3128","0.4207"
"31.8400","4.3196","0.4215"
"31.9200","4.3262","0.4219"
"32.0000","4.3329","0.4229"
"32.0800","4.3395","0.4241"
"32.1600","4.3462","0.4246"
"32.2400","4.3528","0.4258"
"32.3200","4.3594","0.4266"
"32.4000","4.3661","0.4278"
"32.4800","4.3728","0.4286"
"32.5600","4.3796","0.4296"
"32.6400","4.3863","0.4305"
"32.7200","4.3929","0.4314"
"32.8000","4.3995","0.4321"
"32.8800","4.4061","0.4331"
"32.9600","4.4128","0.4343"
"33.0400","4.4194","0.4350"
"33.1200","4.4261","0.4359"
"33.2000","4.4329","0.4367"
"33.2800","4.4396","0.4377"
"33.3600","4.4462","0.4386"
"33.4400","4.4528","0.4400"
"33.5200","4.4596","0.4404"
"33.6000","4.4662","0.4413"
"33.6800","4.4728","0.4421"
"33.7600","4.4794","0.4430"
"33.8400","4.4863","0.4438"
"33.9200","4.4929","0.4451"
"34.0000","4.4996","0.4454"
"34.0800","4.5063","0.4465"
"34.1600","4.5129","0.4475"
"34.2400","4.5196","0.4483"
"34.3200","4.5261","0.4496"
"34.4000","4.5328","0.4501"
"34.4800","4.5394","0.4511"
"34.5600","4.5462","0.4523"
"34.6400","4.5528","0.4529"
"34.7200","4.5595","0.4542"
"34.8000","4.5663","0.4547"
"34.8800","4.5729","0.4556"
"34.9600","4.5795","0.4564"
"35.0400","4.5861","0.4577"
"35.1200","4.5929","0.4584"
"35.2000","4.5994","0.4593"
"35.2800","4.6062","0.4601"
"35.3600","4.6128","0.4608"
"35.4400","4.6196","0.4620"
"35.5200","4.6262","0.4624"
"35.6000","4.6328","0.4638"
"35.6800","4.6394","0.4644"
"35.7600","4.6461","0.4652"
"35.8400","4.6529","0.4666"
"35.9200","4.6595","0.4669"
"36.0000","4.6662","0.4679"
"36.0800","4.6729","0.4691"
"36.1600","4.6795","0.4699"
"36.2400","4.6861","0.4708"
"36.3200","4.6927","0.4714"
"36.4000","4.6996","0.4725"
"36.4800","4.7061","0.4733"
"36.5600","4.7129","0.4744"
"36.6400","4.7195","0.4751"
"36.7200","4.7263","0.4758"
"36.8000","4.7329","0.4770"
"36.8800","4.7394","0.4781"
"36.9600","4.7462","0.4788"
"37.0400","4.7528","0.4800"
"37.1200","4.7596","0.4803"
"37.2000","4.7661","0.4816"
"37.2800","4.7729","0.4821"
"37.3600","4.7796","0.4834"
"37.4400","4.7862","0.4843"
"37.5200","4.7928","0.4852"
"37.6000","4.7994","0.4860"
"37.6800","4.8062","0.4867"
"37.7600","4.8127","0.4878"
"37.8400","4.8195","0.4885"
"37.9200","4.8262","0.4895"
"38.0000","4.8330","0.4908"
"38.0800","4.8395","0.4914"
"38.1600","4.8462","0.4922"
"38.2400","4.8528","0.4929"
"38.3200","4.8594","0.4941"
"38.4000","4.8661","0.4950"
"38.4800","4.8727","0.4962"
"38.5600","4.8796","0.4968"
"38.6400","4.8863","0.4978"
"38.7200","4.8929","0.4989"
"38.8000","4.8994","0.4996"
"38.8800","4.9061","0.5005"
"38.9600","4.9128","0.5014"
"39.0400","4.9194","0.5023"
"39.1200","4.9262","0.5031"
"39.2000","4.9329","0.5039"
"39.2800","4.9396","0.5048"
"39.3600","4.9461","0.5059"
"39.4400","4.9528","0.5066"
"39.5200","4.9596","0.5077"
"39.6000","4.9662","0.5085"
"39.6800","4.9728","0.5094"
"39.7600","4.9794","0.5105"
"39.8400","4.9863","0.5111"
"39.9200","4.9929","0.5118"
"40.0000","4.9996","0.5130"
"40.0800","5.0062","0.5136"
"40.1600","5.0129","0.5149"
"40.2400","5.0196","0.5158"
"40.3200","5.0261","0.5163"
"40.4000","5.0328","0.5177"
"40.4800","5.0394","0.5181"
"40.5600","5.0463","0.5192"
"40.6400","5.0528","0.5200"
"40.7200","5.0596","0.5209"
"40.8000","5.0663","0.5218"
"40.8800","5.0729","0.5228"
"40.9600","5.0794","0.5234"
"41.0400","5.0861","0.5245"
"41.1200","5.0929","0.5252"
"41.2000","5.0995","0.5262"
"41.2800","5.1063","0.5271"
"41.3600","5.1128","0.5282"
"41.4400","5.1196","0.5288"
"41.5200","5.1261","0.5297"
"41.6000","5.1328","0.5304"
"41.6800","5.1394","0.5316"
"41.7600","5.1462","0.5322"
"41.8400","5.1529","0.5330"
"41.9200","5.1594","0.5342"
"42.0000","5.1662","0.5350"
"42.0800","5.1729","0.5363"
"42.1600","5.1795","0.5370"
"42.2400","5.1861","0.5375"
"42.3200","5.1927","0.5385"
"42.4000","5.1996","0.5397"
"42.4800","5.2062","0.5401"
"42.5600","5.2129","0.5409"
"42.6400","5.2195","0.5421"
"42.7200","5.2263","0.5427"
"42.8000","5.2329","0.5435"
"42.8800","5.2394","0.5448"
"42.9600","5.2462","0.5454"
"43.0400","5.2529","0.5464"
"43.1200","5.2596","0.5473"
"43.2000","5.2661","0.5481"
"43.2800","5.2729","0.5489"
"43.3600","5.2796","0.5498"
"43.4400","5.2862","0.5503"
"43.5200","5.2928","0.5517"
"43.6000","5.2994","0.5521"
"43.6800","5.3062","0.5529"
"43.7600","5.3128","0.5541"
"43.8400","5.3196","0.5548"
"43.9200","5.3262","0.5558"
"44.0000","5.3329","0.5564"
"44.0800","5.3394","0.5573"
"44.1600","5.3461","0.5582"
"44.2400","5.3528","0.5590"
"44.3200","5.3594","0.5600"
"44.4000","5.3661","0.5611"
"44.4800","5.3727","0.5614"
"44.5600","5.3796","0.5624"
"44.6400","5.3862","0.5635"
"44.7200","5.3929","0.5644"
"44.8000","5.3995","0.5651"
"44.8800","5.4061","0.5660"
"44.9600","5.4128","0.5667"
"45.0400","5.4194","0.5677"
"45.1200","5.4261","0.5680"
"45.2000","5.4328","0.5694"
"45.2800","5.4396","0.5702"
"45.3600","5.4461","0.5709"
"45.4400","5.4528","0.5720"
"45.5200","5.4596","0.5727"
"45.6000","5.4662","0.5738"
"45.6800","5.4729","0.5741"
"45.7600","5.4794","0.5754"
"45.8400","5.4862","0.5761"
"45.9200","5.4929","0.5770"
"46.0000","5.4996","0.5781"
"46.0800","5.5062","0.5787"
"46.1600","5.5129","0.5797"
"46.2400","5.5196","0.5804"
"46.3200","5.5261","0.5816"
"46.4000","5.5328","0.5823"
"46.4800","5.5394","0.5830"
"46.5600","5.5463","0.5839"
"46.6400","5.5528","0.5850"
"46.7200","5.5596","0.5858"
"46.8000","5.5662","0.5867"
"46.8800","5.5728","0.5874"
"46.9600","5.5794","0.5883"
"47.0400","5.5861","0.5891"
"47.1200","5.5929","0.5902"
"47.2000","5.5995","0.5910"
"47.2800","5.6062","0.5918"
"47.3600","5.6128","0.5926"
"47.4400","5.6196","0.5938"
"47.5200","5.6261","0.5942"
"47.6000","5.6328","0.5950"
"47.6800","5.6395","0.5961"
"47.7600","5.6462","0.5967"
"47.8400","5.6529","0.5980"
"47.9200","5.6594","0.5992"
"48.0000","5.6662","0.5997"
"48.0800","5.6729","0.6004"
"48.1600","5.6795","0.6017"
"48.2400","5.6861","0.6020"
"48.3200","5.6927","0.6031"
"48.4000","5.6996","0.6040"
"48.4800","5.7061","0.6048"
"48.5600","5.7129","0.6060"
"48.6400","5.7195","0.6069"
"48.7200","5.7263","0.6075"
"48.8000","5.7329","0.6083"
"48.8800","5.7394","0.6095"
"48.9600","5.7462","0.6105"
"49.0400","5.7528","0.6111"
"49.1200","5.7596","0.6120"
"49.2000","5.7661","0.6130"
"49.2800","5.7729","0.6136"
"49.3600","5.7796","0.6147"
"49.4400","5.7862","0.6157"
"49.5200","5.7927","0.6162"
"49.6000","5.7994","0.6174"
"49.6800","5.8062","0.6177"
"49.7600","5.8128","0.6185"
"49.8400","5.8196","0.6201"
"49.9200","5.8263","0.6207"
"50.0000","5.8330","0.6213"
"50.0800","5.8394","0.6223"
"50.1600","5.8461","0.6230"
"50.2400","5.8529","0.6241"
"50.3200","5.8595","0.6250"
"50.4000","5.8661","0.6257"
"50.4800","5.8728","0.6268"
"50.5600","5.8796","0.6277"
"50.6400","5.8862","0.6282"
"50.7200","5.8929","0.6290"
"50.8000","5.8995","0.6299"
"50.8800","5.9061","0.6307"
"50.9600","5.9128","0.6317"
"51.0400","5.9194","0.6324"
"51.1200","5.9261","0.6333"
"51.2000","5.9329","0.6341"
"51.2800","5.9396","0.6351"
"51.3600","5.9462","0.6357"
"51.4400","5.9528","0.6370"
"51.5200","5.9596","0.6379"
"51.6000","5.9662","0.6381"
"51.6800","5.9728","0.6389"
"51.7600","5.9794","0.6401"
"51.8400","5.9862","0.6408"
"51.9200","5.9929","0.6414"
"52.0000","5.9996","0.6422"
"52.0800","6.0063","0.6429"
"52.1600","6.0129","0.6439"
"52.2400","6.0196","0.6448"
"52.3200","6.0261","0.6457"
"52.4000","6.0328","0.6468"
"52.4800","6.0395","0.6475"
"52.5600","6.0462","0.6480"
"52.6400","6.0527","0.6492"
"52.7200","6.0596","0.6498"
"52.8000","6.0662","0.6507"
"52.8800","6.0729","0.6516"
"52.9600","6.0795","0.6528"
"53.0400","6.0861","0.6531"
"53.1200","6.0929","0.6537"
"53.2000","6.0995","0.6550"
"53.2800","6.1062","0.6553"
"53.3600","6.1128","0.6566"
"53.4400","6.1196","0.6574"
"53.5200","6.1262","0.6584"
"53.6000","6.1328","0.6589"
"53.6800","6.1395","0.6597"
"53.7600","6.1462","0.6606"
"53.8400","6.1528","0.6610"
"53.9200","6.1594","0.6626"
"54.0000","6.1662","0.6628"
"54.0800","6.1729","0.6637"
"54.1600","6.1795","0.6648"
"54.2400","6.1861","0.6654"
"54.3200","6.1928","0.6663"
"54.4000","6.1995","0.6671"
"54.4800","6.2061","0.6677"
"54.5600","6.2129","0.6684"
"54.6400","6.2195","0.6692"
"54.7200","6.2262","0.6703"
"54.8000","6.2329","0.6712"
"54.8800","6.2394","0.6718"
"54.9600","6.2462","0.6726"
"55.0400","6.2528","0.6735"
"55.1200","6.2596","0.6742"
"55.2000","6.2661","0.6746"
"55.2800","6.2729","0.6756"
"55.3600","6.2796","0.6765"
"55.4400","6.2861","0.6775"
"55.5200","6.2928","0.6781"
"55.6000","6.2994","0.6787"
"55.6800","6.3062","0.6795"
"55.7600","6.3128","0.6806"
"55.8400","6.3195","0.6815"
"55.9200","6.3262","0.6821"
"56.0000","6.3329","0.6827"
"56.0800","6.3394","0.6835"
"56.1600","6.3461","0.6844"
"56.2400","6.3529","0.6853"
"56.3200","6.3594","0.6864"
"56.4000","6.3661","0.6868"
"56.4800","6.3727","0.6875"
"56.5600","6.3796","0.6888"
"56.6400","6.3862","0.6893"
"56.7200","6.3929","0.6899"
"56.8000","6.3995","0.6912"
"56.8800","6.4062","0.6916"
"56.9600","6.4128","0.6926"
"57.0400","6.4194","0.6931"
"57.1200","6.4261","0.6941"
"57.2000","6.4329","0.6948"
"57.2800","6.4396","0.6958"
"57.3600","6.4461","0.6967"
"57.4400","6.4528","0.6974"
"57.5200","6.4596","0.6982"
"57.6000","6.4662","0.6991"
"57.6800","6.4728","0.6997"
"57.7600","6.4794","0.7008"
"57.8400","6.4862","0.7012"
"57.9200","6.4929","0.7020"
"58.0000","6.4996","0.7030"
"58.0800","6.5062","0.7038"
"58.1600","6.5129","0.7047"
"58.2400","6.5196","0.7053"
"58.3200","6.5261","0.7064"
"58.4000","6.5328","0.7071"
"58.4800","6.5395","0.7078"
"58.5600","6.5463","0.7085"
"58.6400","6.5528","0.7095"
"58.7200","6.5596","0.7102"
"58.8000","6.5663","0.7111"
"58.8800","6.5729","0.7117"
"58.9600","6.5795","0.7125"
"59.0400","6.5861","0.7133"
"59.1200","6.5929","0.7141"
"59.2000","6.5994","0.7150"
"59.2800","6.6061","0.7157"
"59.3600","6.6128","0.7166"
"59.4400","6.6196","0.7174"
"59.5200","6.6262","0.7183"
"59.6000","6.6328","0.7189"
"59.6800","6.6395","0.7200"
"59.7600","6.6461","0.7206"
"59.8400","6.6529","0.7212"
"59.9200","6.6594","0.7217"
"60.0000","6.6662","0.7227"
"60.0800","6.6729","0.7237"
"60.1600","6.6795","0.7245"
"60.2400","6.6861","0.7250"
"60.3200","6.6927","0.7258"
"60.4000","6.6996","0.7271"
"60.4800","6.7062","0.7278"
"60.5600","6.7128","0.7284"
"60.6400","6.7194","0.7294"
"60.7200","6.7262","0.7299"
"60.8000","6.7329","0.7306"
"60.8800","6.7394","0.7317"
"60.9600","6.7462","0.7323"
"61.0400","6.7528","0.7333"
"61.1200","6.7596","0.7340"
"61.2000","6.7661","0.7347"
"61.2800","6.7730","0.7353"
"61.3600","6.7796","0.7367"
"61.4400","6.7862","0.7370"
"61.5200","6.7928","0.7379"
"61.6000","6.7994","0.7388"
"61.6800","6.8062","0.7397"
"61.7600","6.8128","0.7401"
"61.8400","6.8196","0.7413"
"61.9200","6.8262","0.7422"
"62.0000","6.8330","0.7426"
"62.0800","6.8395","0.7434"
"62.1600","6.8462","0.7446"
"62.2400","6.8529","0.7450"
"62.3200","6.8595","0.7454"
"62.4000","6.8661","0.7465"
"62.4800","6.8728","0.7474"
"62.5600","6.8796","0.7483"
"62.6400","6.8863","0.7487"
"62.7200","6.8929","0.7499"
"62.8000","6.8995","0.7503"
"62.8800","6.9062","0.7513"
"62.9600","6.9128","0.7517"
"63.0400","6.9193","0.7531"
"63.1200","6.9261","0.7535"
"63.2000","6.9329","0.7543"
"63.2800","6.9396","0.7553"
"63.3600","6.9462","0.7557"
"63.4400","6.9529","0.7570"
"63.5200","6.9595","0.7574"
"63.6000","6.9661","0.7582"
"63.6800","6.9727","0.7588"
"63.7600","6.9793","0.7592"
"63.8400","6.9863","0.7603"
"63.9200","6.9929","0.7614"
"64.0000","6.9996","0.7619"
"64.0800","7.0063","0.7630"
"64.1600","7.0129","0.7637"
"64.2400","7.0196","0.7642"
"64.3200","7.0261","0.7651"
"64.4000","7.0328","0.7659"
"64.4800","7.0394","0.7669"
"64.5600","7.0462","0.7676"
"64.6400","7.0528","0.7683"
"64.7200","7.0596","0.7690"
"64.8000","7.0662","0.7696"
"64.8800","7.0729","0.7704"
"64.9600","7.0794","0.7711"
"65.0400","7.0861","0.7722"
"65.1200","7.0929","0.7727"
"65.2000","7.0995","0.7734"
"65.2800","7.1063","0.7738"
"65.3600","7.1128","0.7754"
"65.4400","7.1196","0.7762"
"65.5200","7.1262","0.7767"
"65.6000","7.1328","0.7774"
"65.6800","7.1395","0.7781"
"65.7600","7.1462","0.7790"
"65.8400","7.1529","0.7796"
"65.9200","7.1595","0.7804"
"66.0000","7.1662","0.7813"
"66.0800","7.1729","0.7823"
"66.1600","7.1795","0.7827"
"66.2400","7.1861","0.7835"
"66.3200","7.1927","0.7846"
"66.4000","7.1996","0.7852"
"66.4800","7.2061","0.7857"
"66.5600","7.2129","0.7868"
"66.6400","7.2195","0.7874"
"66.7200","7.2263","0.7884"
"66.8000","7.2329","0.7890"
"66.8800","7.2394","0.7899"
"66.9600","7.2462","0.7902"
"67.0400","7.2528","0.7916"
"67.1200","7.2596","0.7921"
"67.2000","7.2661","0.7928"
"67.2800","7.2729","0.7935"
"67.3600","7.2796","0.7944"
"67.4400","7.2862","0.7948"
"67.5200","7.2928","0.7958"
"67.6000","7.2994","0.7965"
"67.6800","7.3062","0.7977"
"67.7600","7.3127","0.7982"
"67.8400","7.3195","0.7988"
"67.9200","7.3262","0.7996"
"68.0000","7.3330","0.7999"
"68.0800","7.3394","0.8015"
"68.1600","7.3461","0.8018"
"68.2400","7.3528","0.8028"
"68.3200","7.3594","0.8034"
"68.4000","7.3661","0.8042"
"68.4800","7.3728","0.8048"
"68.5600","7.3796","0.8060"
"68.6400","7.3862","0.8067"
"68.7200","7.3929","0.8073"
"68.8000","7.3994","0.8080"
"68.8800","7.4061","0.8086"
"68.9600","7.4128","0.8095"
"69.0400","7.4194","0.8102"
"69.1200","7.4261","0.8110"
"69.2000","7.4329","0.8117"
"69.2800","7.4396","0.8127"
"69.3600","7.4462","0.8134"
"69.4400","7.4528","0.8147"
"69.5200","7.4596","0.8148"
"69.6000","7.4661","0.8158"
"69.6800","7.4728","0.8162"
"69.7600","7.4794","0.8172"
"69.8400","7.4863","0.8179"
"69.9200","7.4929","0.8189"
"70.0000","7.4996","0.8196"
"70.0800","7.5062","0.8202"
"70.1600","7.5129","0.8210"
"70.2400","7.5196","0.8217"
"70.3200","7.5261","0.8225"
"70.4000","7.5328","0.8230"
"70.4800","7.5394","0.8241"
"70.5600","7.5463","0.8244"
"70.6400","7.5528","0.8256"
"70.7200","7.5596","0.8265"
"70.8000","7.5663","0.8268"
"70.8800","7.5729","0.8276"
"70.9600","7.5794","0.8286"
"71.0400","7.5861","0.8290"
"71.1200","7.5929","0.8298"
"71.2000","7.5995","0.8306"
"71.2800","7.6062","0.8313"
"71.3600","7.6128","0.8320"
"71.4400","7.6196","0.8333"
"71.5200","7.6262","0.8333"
"71.6000","7.6328","0.8340"
"71.6800","7.6395","0.8348"
"71.7600","7.6462","0.8357"
"71.8400","7.6529","0.8369"
"71.9200","7.6594","0.8370"
"72.0000","7.6662","0.8382"
"72.0800","7.6729","0.8387"
"72.1600","7.6794","0.8394"
"72.2400","7.6861","0.8404"
"72.3200","7.6928","0.8411"
"72.4000","7.6996","0.8417"
"72.4800","7.7062","0.8426"
"72.5600","7.7129","0.8432"
"72.6400","7.7195","0.8445"
"72.7200","7.7263","0.8447"
"72.8000","7.7329","0.8455"
"72.8800","7.7394","0.8465"
"72.9600","7.7462","0.8473"
"73.0400","7.7529","0.8481"
"73.1200","7.7596","0.8488"
"73.2000","7.7661","0.8492"
"73.2800","7.7729","0.8497"
"73.3600","7.7796","0.8507"
"73.4400","7.7862","0.8514"
"73.5200","7.7928","0.8522"
"73.6000","7.7995","0.8530"
"73.6800","7.8062","0.8534"
"73.7600","7.8128","0.8548"
"73.8400","7.8196","0.8554"
"73.9200","7.8262","0.8558"
"74.0000","7.8329","0.8568"
"74.0800","7.8395","0.8573"
"74.1600","7.8461","0.8580"
"74.2400","7.8528","0.8591"
"74.3200","7.8594","0.8595"
"74.4000","7.8661","0.8603"
"74.4800","7.8728","0.8610"
"74.5600","7.8796","0.8618"
"74.6400","7.8862","0.8625"
"74.7200","7.8928","0.8635"
"74.8000","7.8995","0.8642"
"74.8800","7.9061","0.8646"
"74.9600","7.9128","0.8655"
"75.0400","7.9194","0.8662"
"75.1200","7.9261","0.8665"
"75.2000","7.9329","0.8677"
"75.2800","7.9396","0.8681"
"75.3600","7.9462","0.8690"
"75.4400","7.9528","0.8700"
"75.5200","7.9596","0.8706"
"75.6000","7.9661","0.8712"
"75.6800","7.9728","0.8720"
"75.7600","7.9794","0.8730"
"75.8400","7.9863","0.8734"
"75.9200","7.9929","0.8741"
"76.0000","7.9996","0.8750"
"76.0800","8.0063","0.8753"
"76.1600","8.0129","0.8761"
"76.2400","8.0196","0.8774"
"76.3200","8.0261","0.8775"
"76.4000","8.0328","0.8783"
"76.4800","8.0394","0.8793"
"76.5600","8.0463","0.8797"
"76.6400","8.0528","0.8806"
"76.7200","8.0595","0.8814"
"76.8000","8.0662","0.8822"
"76.8800","8.0729","0.8828"
"76.9600","8.0795","0.8838"
"77.0400","8.0861","0.8841"
"77.1200","8.0928","0.8849"
"77.2000","8.0995","0.8855"
"77.2800","8.1063","0.8861"
"77.3600","8.1128","0.8868"
"77.4400","8.1196","0.8876"
"77.5200","8.1262","0.8884"
"77.6000","8.1328","0.8893"
"77.6800","8.1395","0.8900"
"77.7600","8.1461","0.8906"
"77.8400","8.1528","0.8917"
"77.9200","8.1594","0.8922"
"78.0000","8.1662","0.8931"
"78.0800","8.1729","0.8933"
"78.1600","8.1795","0.8946"
"78.2400","8.1861","0.8950"
"78.3200","8.1928","0.8958"
"78.4000","8.1996","0.8967"
"78.4800","8.2061","0.8971"
"78.5600","8.2128","0.8977"
"78.6400","8.2195","0.8985"
"78.7200","8.2263","0.8992"
"78.8000","8.2329","0.9004"
"78.8800","8.2394","0.9010"
"78.9600","8.2462","0.9015"
"79.0400","8.2528","0.9021"
"79.1200","8.2596","0.9026"
"79.2000","8.2661","0.9037"
"79.2800","8.2729","0.9046"
"79.3600","8.2796","0.9054"
"79.4400","8.2862","0.9059"
"79.5200","8.2928","0.9066"
"79.6000","8.2994","0.9074"
"79.6800","8.3062","0.9083"
"79.7600","8.3128","0.9085"
"79.8400","8.3196","0.9099"
"79.9200","8.3262","0.9101"
"80.0000","8.3329","0.9113"
"80.0800","8.3394","0.9116"
"80.1600","8.3461","0.9122"
"80.2400","8.3529","0.9131"
"80.3200","8.3595","0.9139"
"80.4000","8.3661","0.9147"
"80.4800","8.3728","0.9152"
"80.5600","8.3796","0.9161"
"80.6400","8.3862","0.9169"
"80.7200","8.3929","0.9174"
"80.8000","8.3995","0.9179"
"80.8800","8.4062","0.9187"
"80.9600","8.4128","0.9199"
"81.0400","8.4194","0.9200"
"81.1200","8.4261","0.9211"
"81.2000","8.4328","0.9217"
"81.2800","8.4396","0.9228"
"81.3600","8.4462","0.9233"
"81.4400","8.4529","0.9239"
"81.5200","8.4596","0.9247"
"81.6000","8.4662","0.9253"
"81.6800","8.4728","0.9259"
"81.7600","8.4793","0.9266"
"81.8400","8.4863","0.9271"
"81.9200","8.4929","0.9280"
"82.0000","8.4996","0.9289"
"82.0800","8.5062","0.9297"
"82.1600","8.5129","0.9303"
"82.2400","8.5196","0.9311"
"82.3200","8.5261","0.9314"
"82.4000","8.5328","0.9325"
"82.4800","8.5395","0.9332"
"82.5600","8.5463","0.9340"
"82.6400","8.5528","0.9341"
"82.7200","8.5595","0.9353"
"82.8000","8.5662","0.9359"
"82.8800","8.5729","0.9367"
"82.9600","8.5795","0.9372"
"83.0400","8.5861","0.9380"
"83.1200","8.5929","0.9388"
"83.2000","8.5995","0.9390"
"83.2800","8.6062","0.9402"
"83.3600","8.6128","0.9406"
"83.4400","8.6196","0.9413"
"83.5200","8.6262","0.9421"
"83.6000","8.6328","0.9428"
"83.6800","8.6395","0.9433"
"83.7600","8.6462","0.9438"
"83.8400","8.6529","0.9405"
"83.9200","8.6594","0.9401"
"84.0000","8.6662","0.9406"
"84.0800","8.6729","0.9408"
"84.1600","8.6796","0.9416"
"84.2400","8.6861","0.9419"
"84.3200","8.6928","0.9427"
"84.4000","8.6996","0.9435"
"84.4800","8.7062","0.9439"
"84.5600","8.7129","0.9445"
"84.6400","8.7196","0.9455"
"84.7200","8.7263","0.9462"
"84.8000","8.7329","0.9466"
"84.8800","8.7394","0.9473"
"84.9600","8.7462","0.9479"
"85.0400","8.7528","0.9484"
"85.1200","8.7596","0.9491"
"85.2000","8.7661","0.9498"
"85.2800","8.7729","0.9506"
"85.3600","8.7796","0.9510"
"85.4400","8.7862","0.9511"
"85.5200","8.7928","0.9519"
"85.6000","8.7994","0.9524"
"85.6800","8.8062","0.9529"
"85.7600","8.8128","0.9539"
"85.8400","8.8196","0.9544"
"85.9200","8.8262","0.9553"
"86.0000","8.8329","0.9558"
"86.0800","8.8395","0.9567"
"86.1600","8.8462","0.9573"
"86.2400","8.8529","0.9579"
"86.3200","8.8595","0.9585"
"86.4000","8.8661","0.9588"
"86.4800","8.8727","0.9598"
"86.5600","8.8796","0.9606"
"86.6400","8.8863","0.9611"
"86.7200","8.8929","0.9619"
"86.8000","8.8995","0.9562"
"86.8800","8.9061","0.9546"
"86.9600","8.9128","0.9552"
"87.0400","8.9194","0.9552"
"87.1200","8.9261","0.9553"
"87.2000","8.9328","0.9558"
"87.2800","8.9396","0.9563"
"87.3600","8.9462","0.9569"
"87.4400","8.9529","0.9575"
"87.5200","8.9596","0.9580"
"87.6000","8.9661","0.9583"
"87.6800","8.9727","0.9591"
"87.7600","8.9794","0.9600"
"87.8400","8.9862","0.9602"
"87.9200","8.9929","0.9608"
"88.0000","8.9996","0.9612"
"88.0800","9.0062","0.9616"
"88.1600","9.0129","0.9628"
"88.2400","9.0196","0.9633"
"88.3200","9.0261","0.9637"
"88.4000","9.0328","0.9644"
"88.4800","9.0395","0.9652"
"88.5600","9.0463","0.9655"
"88.6400","9.0528","0.9664"
"88.7200","9.0596","0.9672"
"88.8000","9.0662","0.9679"
"88.8800","9.0729","0.9682"
"88.9600","9.0795","0.9693"
"89.0400","9.0861","0.9698"
"89.1200","9.0929","0.9703"
"89.2000","9.0995","0.9707"
"89.2800","9.1062","0.9709"
"89.3600","9.1128","0.9670"
"89.4400","9.1196","0.9667"
"89.5200","9.1262","0.9672"
"89.6000","9.1328","0.9676"
"89.6800","9.1394","0.9682"
"89.7600","9.1461","0.9684"
"89.8400","9.1529","0.9692"
"89.9200","9.1594","0.9696"
"90.0000","9.1662","0.9701"
"90.0800","9.1729","0.9706"
"90.1600","9.1795","0.9715"
"90.2400","9.1861","0.9720"
"90.3200","9.1927","0.9730"
"90.4000","9.1996","0.9733"
"90.4800","9.2062","0.9740"
"90.5600","9.2129","0.9744"
"90.6400","9.2195","0.9752"
"90.7200","9.2262","0.9758"
"90.8000","9.2328","0.9763"
"90.8800","9.2394","0.9770"
"90.9600","9.2462","0.9776"
"91.0400","9.2529","0.9784"
"91.1200","9.2596","0.9791"
"91.2000","9.2661","0.9797"
"91.2800","9.2729","0.9804"
"91.3600","9.2796","0.9807"
"91.4400","9.2862","0.9814"
"91.5200","9.2928","0.9821"
"91.6000","9.2994","0.9828"
"91.6800","9.3062","0.9833"
"91.7600","9.3128","0.9840"
"91.8400","9.3196","0.9847"
"91.9200","9.3262","0.9851"
"92.0000","9.3330","0.9808"
"92.0800","9.3394","0.9801"
"92.1600","9.3461","0.9794"
"92.2400","9.3528","0.9800"
"92.3200","9.3595","0.9768"
"92.4000","9.3661","0.9763"
"92.4800","9.3728","0.9761"
"92.5600","9.3796","0.9761"
"92.6400","9.3863","0.9763"
"92.7200","9.3929","0.9768"
"92.8000","9.3994","0.9773"
"92.8800","9.4061","0.9773"
"92.9600","9.4128","0.9782"
"93.0400","9.4194","0.9787"
"93.1200","9.4261","0.9788"
"93.2000","9.4329","0.9794"
"93.2800","9.4396","0.9800"
"93.3600","9.4462","0.9807"
"93.4400","9.4528","0.9812"
"93.5200","9.4596","0.9814"
"93.6000","9.4662","0.9820"
"93.6800","9.4728","0.9826"
"93.7600","9.4794","0.9831"
"93.8400","9.4863","0.9837"
"93.9200","9.4929","0.9843"
"94.0000","9.4995","0.9845"
"94.0800","9.5062","0.9853"
"94.1600","9.5129","0.9858"
"94.2400","9.5196","0.9862"
"94.3200","9.5261","0.9867"
"94.4000","9.5328","0.9874"
"94.4800","9.5394","0.9879"
"94.5600","9.5463","0.9887"
"94.6400","9.5528","0.9893"
"94.7200","9.5596","0.9900"
"94.8000","9.5662","0.9901"
"94.8800","9.5729","0.9910"
"94.9600","9.5795","0.9917"
"95.0400","9.5861","0.9923"
"95.1200","9.5929","0.9929"
"95.2000","9.5995","0.9936"
"95.2800","9.6062","0.9940"
"95.3600","9.6128","0.9945"
"95.4400","9.6196","0.9952"
"95.5200","9.6262","0.9958"
"95.6000","9.6328","0.9963"
"95.6800","9.6395","0.9970"
"95.7600","9.6461","0.9975"
"95.8400","9.6529","0.9984"
"95.9200","9.6595","0.9987"
"96.0000","9.6662","0.9993"
"96.0800","9.6729","0.9998"
"96.1600","9.6795","1.0007"
"96.2400","9.6861","1.0013"
"96.3200","9.6928","1.0019"
"96.4000","9.6996","1.0021"
"96.4800","9.7062","1.0029"
"96.5600","9.7129","1.0033"
"96.6400","9.7195","1.0046"
"96.7200","9.7262","1.0047"
"96.8000","9.7329","1.0054"
"96.8800","9.7394","1.0061"
"96.9600","9.7463","1.0065"
"97.0400","9.7529","1.0071"
"97.1200","9.7596","1.0075"
"97.2000","9.7661","1.0052"
"97.2800","9.7729","1.0051"
"97.3600","9.7796","1.0058"
"97.4400","9.7863","0.9600"
"97.5200","9.7929","0.9224"
"97.6000","9.7995","0.9196"
"97.6800","9.8062","0.9174"
"97.7600","9.8127","0.9169"
"97.8400","9.8196","0.9157"
"97.9200","9.8262","0.9150"
"98.0000","9.8330","0.9143"
"98.0800","9.8394","0.9134"
"98.1600","9.8461","0.9133"
"98.2400","9.8528","0.9136"
"98.3200","9.8594","0.9129"
"98.4000","9.8661","0.9134"
"98.4800","9.8728","0.9131"
"98.5600","9.8796","0.9134"
"98.6400","9.8863","0.9132"
"98.7200","9.8929","0.9134"
"98.8000","9.8994","0.9136"
"98.8800","9.9061","0.9137"
"98.9600","9.9128","0.9144"
"99.0400","9.9194","0.9144"
"99.1200","9.9261","0.9146"
"99.2000","9.9329","0.9147"
"99.2800","9.9396","0.9154"
"99.3600","9.9461","0.9156"
"99.4400","9.9528","0.9160"
"99.5200","9.9596","0.9163"
"99.6000","9.9662","0.9169"
"99.6800","9.9728","0.9168"
"99.7600","9.9794","0.9176"
"99.8400","9.9863","0.9178"
"99.9200","9.9929","0.9184"
"100.0000","9.9996","0.9192"
"100.0800","10.0063","0.9185"
"100.1600","10.0129","0.9196"
"100.2400","10.0196","0.9201"
"100.3200","10.0261","0.9204"
"100.4000","10.0328","0.9212"
"100.4800","10.0394","0.9215"
"100.5600","10.0463","0.9214"
"100.6400","10.0528","0.9212"
"100.7200","10.0596","0.9212"
"100.8000","10.0663","0.9220"
"100.8440","10.0699","0.9220"