File: flexural/ES100_Trevor_Flexural_Data_14_1.csv
Specimen text inputs : Specimen text input  1,,""

Results Table 1
,Specimen text input  1
"14","bh_f2"

Results Table 2

Time,Displacement,Force
(s),(mm),(kN)
"0.0000","0.5840","0.0203"
"0.0800","0.5928","0.0228"
"0.1600","0.5966","0.0226"
"0.2400","0.6030","0.0239"
"0.3200","0.6095","0.0246"
"0.4000","0.6161","0.0260"
"0.4800","0.6227","0.0266"
"0.5600","0.6296","0.0276"
"0.6400","0.6362","0.0287"
"0.7200","0.6429","0.0298"
"0.8000","0.6495","0.0310"
"0.8800","0.6561","0.0317"
"0.9600","0.6628","0.0330"
"1.0400","0.6694","0.0340"
"1.1200","0.6762","0.0346"
"1.2000","0.6829","0.0362"
"1.2800","0.6896","0.0367"
"1.3600","0.6962","0.0379"
"1.4400","0.7028","0.0389"
"1.5200","0.7096","0.0397"
"1.6000","0.7161","0.0411"
"1.6800","0.7228","0.0419"
"1.7600","0.7294","0.0429"
"1.8400","0.7363","0.0440"
"1.9200","0.7429","0.0452"
"2.0000","0.7496","0.0459"
"2.0800","0.7562","0.0467"
"2.1600","0.7629","0.0480"
"2.2400","0.7696","0.0485"
"2.3200","0.7761","0.0499"
"2.4000","0.7828","0.0511"
"2.4800","0.7894","0.0518"
"2.5600","0.7962","0.0530"
"2.6400","0.8027","0.0541"
"2.7200","0.8096","0.0553"
"2.8000","0.8163","0.0560"
"2.8800","0.8229","0.0571"
"2.9600","0.8294","0.0579"
"3.0400","0.8361","0.0592"
"3.1200","0.8428","0.0603"
"3.2000","0.8494","0.0611"
"3.2800","0.8562","0.0621"
"3.3600","0.8627","0.0637"
"3.4400","0.8696","0.0643"
"3.5200","0.8762","0.0653"
"3.6000","0.8828","0.0662"
"3.6800","0.8894","0.0674"
"3.7600","0.8961","0.0685"
"3.8400","0.9029","0.0696"
"3.9200","0.9094","0.0707"
"4.0000","0.9162","0.0715"
"4.0800","0.9229","0.0729"
"4.1600","0.9295","0.0739"
"4.2400","0.9361","0.0751"
"4.3200","0.9427","0.0761"
"4.4000","0.9496","0.0769"
"4.4800","0.9561","0.0778"
"4.5600","0.9629","0.0790"
"4.6400","0.9694","0.0803"
"4.7200","0.9763","0.0811"
"4.8000","0.9829","0.0824"
"4.8800","0.9894","0.0836"
"4.9600","0.9962","0.0843"
"5.0400","1.0028","0.0857"
"5.1200","1.0096","0.0861"
"5.2000","1.0161","0.0876"
"5.2800","1.0229","0.0885"
"5.3600","1.0295","0.0891"
"5.4400","1.0362","0.0904"
"5.5200","1.0428","0.0916"
"5.6000","1.0494","0.0927"
"5.6800","1.0563","0.0934"
"5.7600","1.0627","0.0948"
"5.8400","1.0695","0.0953"
"5.9200","1.0762","0.0970"
"6.0000","1.0830","0.0978"
"6.0800","1.0894","0.0992"
"6.1600","1.0961","0.0999"
"6.2400","1.1028","0.1008"
"6.3200","1.1094","0.1018"
"6.4000","1.1161","0.1032"
"6.4800","1.1228","0.1043"
"6.5600","1.1296","0.1054"
"6.6400","1.1362","0.1061"
"6.7200","1.1429","0.1071"
"6.8000","1.1494","0.1083"
"6.8800","1.1561","0.1093"
"6.9600","1.1629","0.1107"
"7.0400","1.1694","0.1113"
"7.1200","1.1762","0.1125"
"7.2000","1.1829","0.1135"
"7.2800","1.1897","0.1145"
"7.3600","1.1961","0.1156"
"7.4400","1.2028","0.1169"
"7.5200","1.2096","0.1175"
"7.6000","1.2162","0.1187"
"7.6800","1.2228","0.1198"
"7.7600","1.2294","0.1209"
"7.8400","1.2363","0.1216"
"7.9200","1.2429","0.1228"
"8.0000","1.2496","0.1236"
"8.0800","1.2562","0.1246"
"8.1600","1.2629","0.1260"
"8.2400","1.2696","0.1268"
"8.3200","1.2761","0.1277"
"8.4000","1.2828","0.1287"
"8.4800","1.2894","0.1300"
"8.5600","1.2962","0.1307"
"8.6400","1.3028","0.1318"
"8.7200","1.3096","0.1329"
"8.8000","1.3162","0.1336"
"8.8800","1.3229","0.1350"
"8.9600","1.3295","0.1357"
"9.0400","1.3361","0.1367"
"9.1200","1.3429","0.1380"
"9.2000","1.3495","0.1388"
"9.2800","1.3563","0.1398"
"9.3600","1.3628","0.1408"
"9.4400","1.3696","0.1417"
"9.5200","1.3762","0.1429"
"9.6000","1.3828","0.1439"
"9.6800","1.3895","0.1451"
"9.7600","1.3961","0.1458"
"9.8400","1.4029","0.1469"
"9.9200","1.4094","0.1482"
"10.0000","1.4162","0.1489"
"10.0800","1.4229","0.1498"
"10.1600","1.4295","0.1510"
"10.2400","1.4361","0.1522"
"10.3200","1.4428","0.1530"
"10.4000","1.4496","0.1538"
"10.4800","1.4561","0.1552"
"10.5600","1.4629","0.1563"
"10.6400","1.4695","0.1571"
"10.7200","1.4763","0.1583"
"10.8000","1.4829","0.1593"
"10.8800","1.4894","0.1601"
"10.9600","1.4962","0.1609"
"11.0400","1.5028","0.1625"
"11.1200","1.5096","0.1628"
"11.2000","1.5161","0.1646"
"11.2800","1.5230","0.1654"
"11.3600","1.5296","0.1658"
"11.4400","1.5362","0.1673"
"11.5200","1.5428","0.1683"
"11.6000","1.5494","0.1696"
"11.6800","1.5562","0.1706"
"11.7600","1.5628","0.1710"
"11.8400","1.5696","0.1722"
"11.9200","1.5762","0.1733"
"12.0000","1.5829","0.1744"
"12.0800","1.5894","0.1756"
"12.1600","1.5961","0.1761"
"12.2400","1.6028","0.1774"
"12.3200","1.6094","0.1780"
"12.4000","1.6161","0.1791"
"12.4800","1.6227","0.1804"
"12.5600","1.6296","0.1810"
"12.6400","1.6362","0.1824"
"12.7200","1.6429","0.1835"
"12.8000","1.6494","0.1840"
"12.8800","1.6561","0.1854"
"12.9600","1.6628","0.1864"
"13.0400","1.6694","0.1869"
"13.1200","1.6761","0.1881"
"13.2000","1.6828","0.1890"
"13.2800","1.6896","0.1903"
"13.3600","1.6962","0.1910"
"13.4400","1.7029","0.1923"
"13.5200","1.7096","0.1933"
"13.6000","1.7162","0.1940"
"13.6800","1.7228","0.1950"
"13.7600","1.7294","0.1962"
"13.8400","1.7363","0.1970"
"13.9200","1.7429","0.1981"
"14.0000","1.7496","0.1992"
"14.0800","1.7562","0.1998"
"14.1600","1.7629","0.2011"
"14.2400","1.7696","0.2020"
"14.3200","1.7761","0.2028"
"14.4000","1.7828","0.2037"
"14.4800","1.7894","0.2049"
"14.5600","1.7963","0.2055"
"14.6400","1.8027","0.2069"
"14.7200","1.8096","0.2079"
"14.8000","1.8162","0.2089"
"14.8800","1.8228","0.2094"
"14.9600","1.8295","0.2108"
"15.0400","1.8361","0.2117"
"15.1200","1.8429","0.2127"
"15.2000","1.8494","0.2137"
"15.2800","1.8562","0.2143"
"15.3600","1.8628","0.2155"
"15.4400","1.8696","0.2168"
"15.5200","1.8761","0.2174"
"15.6000","1.8828","0.2181"
"15.6800","1.8895","0.2193"
"15.7600","1.8961","0.2203"
"15.8400","1.9029","0.2213"
"15.9200","1.9094","0.2222"
"16.0000","1.9162","0.2230"
"16.0800","1.9229","0.2241"
"16.1600","1.9295","0.2250"
"16.2400","1.9361","0.2261"
"16.3200","1.9428","0.2274"
"16.4000","1.9496","0.2281"
"16.4800","1.9561","0.2293"
"16.5600","1.9629","0.2302"
"16.6400","1.9695","0.2305"
"16.7200","1.9763","0.2322"
"16.8000","1.9829","0.2325"
"16.8800","1.9894","0.2338"
"16.9600","1.9962","0.2350"
"17.0400","2.0028","0.2361"
"17.1200","2.0096","0.2366"
"17.2000","2.0161","0.2376"
"17.2800","2.0229","0.2387"
"17.3600","2.0295","0.2398"
"17.4400","2.0362","0.2404"
"17.5200","2.0428","0.2414"
"17.6000","2.0494","0.2425"
"17.6800","2.0562","0.2432"
"17.7600","2.0628","0.2446"
"17.8400","2.0696","0.2453"
"17.9200","2.0762","0.2460"
"18.0000","2.0830","0.2471"
"18.0800","2.0894","0.2478"
"18.1600","2.0962","0.2488"
"18.2400","2.1028","0.2502"
"18.3200","2.1095","0.2507"
"18.4000","2.1162","0.2515"
"18.4800","2.1228","0.2529"
"18.5600","2.1296","0.2536"
"18.6400","2.1362","0.2543"
"18.7200","2.1429","0.2554"
"18.8000","2.1494","0.2564"
"18.8800","2.1562","0.2573"
"18.9600","2.1628","0.2582"
"19.0400","2.1694","0.2591"
"19.1200","2.1761","0.2599"
"19.2000","2.1828","0.2609"
"19.2800","2.1896","0.2617"
"19.3600","2.1961","0.2628"
"19.4400","2.2028","0.2639"
"19.5200","2.2095","0.2646"
"19.6000","2.2162","0.2654"
"19.6800","2.2228","0.2665"
"19.7600","2.2294","0.2675"
"19.8400","2.2363","0.2681"
"19.9200","2.2429","0.2692"
"20.0000","2.2496","0.2702"
"20.0800","2.2562","0.2711"
"20.1600","2.2629","0.2719"
"20.2400","2.2696","0.2731"
"20.3200","2.2761","0.2738"
"20.4000","2.2829","0.2751"
"20.4800","2.2895","0.2756"
"20.5600","2.2963","0.2768"
"20.6400","2.3028","0.2780"
"20.7200","2.3095","0.2787"
"20.8000","2.3162","0.2796"
"20.8800","2.3229","0.2805"
"20.9600","2.3295","0.2811"
"21.0400","2.3361","0.2827"
"21.1200","2.3429","0.2832"
"21.2000","2.3495","0.2844"
"21.2800","2.3562","0.2850"
"21.3600","2.3628","0.2861"
"21.4400","2.3696","0.2871"
"21.5200","2.3762","0.2880"
"21.6000","2.3828","0.2888"
"21.6800","2.3894","0.2898"
"21.7600","2.3962","0.2902"
"21.8400","2.4029","0.2916"
"21.9200","2.4094","0.2924"
"22.0000","2.4161","0.2933"
"22.0800","2.4229","0.2944"
"22.1600","2.4295","0.2951"
"22.2400","2.4361","0.2960"
"22.3200","2.4428","0.2970"
"22.4000","2.4495","0.2978"
"22.4800","2.4561","0.2991"
"22.5600","2.4629","0.2995"
"22.6400","2.4695","0.3003"
"22.7200","2.4762","0.3017"
"22.8000","2.4829","0.3025"
"22.8800","2.4894","0.3031"
"22.9600","2.4962","0.3039"
"23.0400","2.5028","0.3052"
"23.1200","2.5096","0.3061"
"23.2000","2.5161","0.3065"
"23.2800","2.5229","0.3077"
"23.3600","2.5296","0.3085"
"23.4400","2.5362","0.3089"
"23.5200","2.5428","0.3103"
"23.6000","2.5494","0.3109"
"23.6800","2.5562","0.3120"
"23.7600","2.5628","0.3129"
"23.8400","2.5696","0.3138"
"23.9200","2.5762","0.3149"
"24.0000","2.5829","0.3156"
"24.0800","2.5894","0.3166"
"24.1600","2.5962","0.3170"
"24.2400","2.6028","0.3182"
"24.3200","2.6095","0.3188"
"24.4000","2.6161","0.3196"
"24.4800","2.6228","0.3210"
"24.5600","2.6296","0.3215"
"24.6400","2.6362","0.3223"
"24.7200","2.6429","0.3230"
"24.8000","2.6495","0.3240"
"24.8800","2.6561","0.3250"
"24.9600","2.6628","0.3258"
"25.0400","2.6694","0.3266"
"25.1200","2.6761","0.3278"
"25.2000","2.6829","0.3285"
"25.2800","2.6896","0.3296"
"25.3600","2.6961","0.3304"
"25.4400","2.7029","0.3312"
"25.5200","2.7096","0.3324"
"25.6000","2.7161","0.3329"
"25.6800","2.7228","0.3338"
"25.7600","2.7294","0.3344"
"25.8400","2.7363","0.3354"
"25.9200","2.7429","0.3359"
"26.0000","2.7496","0.3369"
"26.0800","2.7562","0.3377"
"26.1600","2.7629","0.3388"
"26.2400","2.7696","0.3392"
"26.3200","2.7761","0.3404"
"26.4000","2.7828","0.3411"
"26.4800","2.7894","0.3417"
"26.5600","2.7962","0.3428"
"26.6400","2.8028","0.3438"
"26.7200","2.8095","0.3444"
"26.8000","2.8163","0.3453"
"26.8800","2.8229","0.3460"
"26.9600","2.8295","0.3468"
"27.0400","2.8361","0.3476"
"27.1200","2.8429","0.3490"
"27.2000","2.8494","0.3493"
"27.2800","2.8562","0.3504"
"27.3600","2.8628","0.3512"
"27.4400","2.8696","0.3523"
"27.5200","2.8762","0.3528"
"27.6000","2.8828","0.3535"
"27.6800","2.8894","0.3544"
"27.7600","2.8961","0.3552"
"27.8400","2.9029","0.3561"
"27.9200","2.9094","0.3567"
"28.0000","2.9162","0.3577"
"28.0800","2.9229","0.3583"
"28.1600","2.9295","0.3594"
"28.2400","2.9361","0.3600"
"28.3200","2.9427","0.3609"
"28.4000","2.9496","0.3619"
"28.4800","2.9562","0.3628"
"28.5600","2.9629","0.3634"
"28.6400","2.9695","0.3643"
"28.7200","2.9762","0.3648"
"28.8000","2.9828","0.3660"
"28.8800","2.9894","0.3665"
"28.9600","2.9962","0.3673"
"29.0400","3.0029","0.3681"
"29.1200","3.0096","0.3691"
"29.2000","3.0161","0.3701"
"29.2800","3.0229","0.3708"
"29.3600","3.0295","0.3714"
"29.4400","3.0362","0.3721"
"29.5200","3.0428","0.3729"
"29.6000","3.0494","0.3743"
"29.6800","3.0562","0.3743"
"29.7600","3.0627","0.3757"
"29.8400","3.0695","0.3763"
"29.9200","3.0761","0.3767"
"30.0000","3.0830","0.3778"
"30.0800","3.0894","0.3788"
"30.1600","3.0962","0.3795"
"30.2400","3.1028","0.3804"
"30.3200","3.1095","0.3806"
"30.4000","3.1161","0.3818"
"30.4800","3.1228","0.3824"
"30.5600","3.1296","0.3832"
"30.6400","3.1363","0.3843"
"30.7200","3.1429","0.3852"
"30.8000","3.1494","0.3854"
"30.8800","3.1561","0.3870"
"30.9600","3.1628","0.3872"
"31.0400","3.1694","0.3885"
"31.1200","3.1762","0.3887"
"31.2000","3.1829","0.3898"
"31.2800","3.1896","0.3905"
"31.3600","3.1962","0.3915"
"31.4400","3.2028","0.3924"
"31.5200","3.2095","0.3930"
"31.6000","3.2162","0.3936"
"31.6800","3.2228","0.3944"
"31.7600","3.2294","0.3952"
"31.8400","3.2363","0.3961"
"31.9200","3.2429","0.3969"
"32.0000","3.2495","0.3973"
"32.0800","3.2562","0.3983"
"32.1600","3.2629","0.3995"
"32.2400","3.2696","0.3998"
"32.3200","3.2761","0.4009"
"32.4000","3.2828","0.4017"
"32.4800","3.2894","0.4024"
"32.5600","3.2963","0.4032"
"32.6400","3.3028","0.4042"
"32.7200","3.3096","0.4050"
"32.8000","3.3163","0.4054"
"32.8800","3.3229","0.4063"
"32.9600","3.3294","0.4072"
"33.0400","3.3361","0.4078"
"33.1200","3.3428","0.4088"
"33.2000","3.3495","0.4095"
"33.2800","3.3563","0.4103"
"33.3600","3.3628","0.4109"
"33.4400","3.3696","0.4115"
"33.5200","3.3762","0.4125"
"33.6000","3.3828","0.4133"
"33.6800","3.3894","0.4140"
"33.7600","3.3961","0.4146"
"33.8400","3.4029","0.4157"
"33.9200","3.4095","0.4163"
"34.0000","3.4162","0.4172"
"34.0800","3.4228","0.4181"
"34.1600","3.4294","0.4187"
"34.2400","3.4361","0.4196"
"34.3200","3.4427","0.4202"
"34.4000","3.4496","0.4210"
"34.4800","3.4561","0.4218"
"34.5600","3.4629","0.4223"
"34.6400","3.4695","0.4229"
"34.7200","3.4763","0.4239"
"34.8000","3.4828","0.4248"
"34.8800","3.4894","0.4256"
"34.9600","3.4962","0.4263"
"35.0400","3.5029","0.4272"
"35.1200","3.5096","0.4279"
"35.2000","3.5161","0.4287"
"35.2800","3.5229","0.4295"
"35.3600","3.5296","0.4297"
"35.4400","3.5363","0.4305"
"35.5200","3.5428","0.4314"
"35.6000","3.5494","0.4324"
"35.6800","3.5562","0.4327"
"35.7600","3.5628","0.4341"
"35.8400","3.5696","0.4342"
"35.9200","3.5762","0.4347"
"36.0000","3.5830","0.4357"
"36.0800","3.5894","0.4367"
"36.1600","3.5962","0.4372"
"36.2400","3.6028","0.4378"
"36.3200","3.6094","0.4384"
"36.4000","3.6161","0.4394"
"36.4800","3.6227","0.4402"
"36.5600","3.6297","0.4405"
"36.6400","3.6363","0.4415"
"36.7200","3.6429","0.4423"
"36.8000","3.6494","0.4429"
"36.8800","3.6561","0.4436"
"36.9600","3.6628","0.4446"
"37.0400","3.6694","0.4450"
"37.1200","3.6762","0.4460"
"37.2000","3.6829","0.4467"
"37.2800","3.6896","0.4472"
"37.3600","3.6961","0.4483"
"37.4400","3.7028","0.4489"
"37.5200","3.7096","0.4493"
"37.6000","3.7161","0.4502"
"37.6800","3.7228","0.4507"
"37.7600","3.7294","0.4513"
"37.8400","3.7362","0.4524"
"37.9200","3.7429","0.4532"
"38.0000","3.7496","0.4538"
"38.0800","3.7562","0.4548"
"38.1600","3.7629","0.4553"
"38.2400","3.7696","0.4556"
"38.3200","3.7761","0.4566"
"38.4000","3.7827","0.4573"
"38.4800","3.7894","0.4580"
"38.5600","3.7963","0.4586"
"38.6400","3.8027","0.4594"
"38.7200","3.8096","0.4601"
"38.8000","3.8163","0.4606"
"38.8800","3.8229","0.4617"
"38.9600","3.8294","0.4624"
"39.0400","3.8361","0.4630"
"39.1200","3.8429","0.4636"
"39.2000","3.8495","0.4643"
"39.2800","3.8563","0.4649"
"39.3600","3.8628","0.4658"
"39.4400","3.8696","0.4666"
"39.5200","3.8762","0.4671"
"39.6000","3.8828","0.4678"
"39.6800","3.8894","0.4686"
"39.7600","3.8962","0.4689"
"39.8400","3.9029","0.4702"
"39.9200","3.9094","0.4706"
"40.0000","3.9162","0.4712"
"40.0800","3.9229","0.4720"
"40.1600","3.9295","0.4726"
"40.2400","3.9361","0.4732"
"40.3200","3.9428","0.4748"
"40.4000","3.9496","0.4750"
"40.4800","3.9562","0.4755"
"40.5600","3.9629","0.4763"
"40.6400","3.9695","0.4771"
"40.7200","3.9762","0.4778"
"40.8000","3.9829","0.4785"
"40.8800","3.9894","0.4792"
"40.9600","3.9962","0.4799"
"41.0400","4.0028","0.4807"
"41.1200","4.0095","0.4814"
"41.2000","4.0161","0.4822"
"41.2800","4.0230","0.4829"
"41.3600","4.0296","0.4833"
"41.4400","4.0363","0.4841"
"41.5200","4.0428","0.4850"
"41.6000","4.0494","0.4856"
"41.6800","4.0562","0.4863"
"41.7600","4.0628","0.4869"
"41.8400","4.0696","0.4878"
"41.9200","4.0762","0.4883"
"42.0000","4.0830","0.4892"
"42.0800","4.0895","0.4899"
"42.1600","4.0961","0.4903"
"42.2400","4.1028","0.4914"
"42.3200","4.1095","0.4917"
"42.4000","4.1161","0.4925"
"42.4800","4.1228","0.4933"
"42.5600","4.1296","0.4941"
"42.6400","4.1363","0.4948"
"42.7200","4.1428","0.4956"
"42.8000","4.1494","0.4962"
"42.8800","4.1561","0.4971"
"42.9600","4.1629","0.4975"
"43.0400","4.1694","0.4981"
"43.1200","4.1761","0.4990"
"43.2000","4.1828","0.4995"
"43.2800","4.1896","0.5007"
"43.3600","4.1962","0.5011"
"43.4400","4.2029","0.5019"
"43.5200","4.2096","0.5027"
"43.6000","4.2162","0.5032"
"43.6800","4.2228","0.5039"
"43.7600","4.2294","0.5046"
"43.8400","4.2362","0.5052"
"43.9200","4.2428","0.5060"
"44.0000","4.2495","0.5066"
"44.0800","4.2562","0.5074"
"44.1600","4.2629","0.5080"
"44.2400","4.2696","0.5087"
"44.3200","4.2760","0.5093"
"44.4000","4.2828","0.5099"
"44.4800","4.2895","0.5106"
"44.5600","4.2964","0.5116"
"44.6400","4.3028","0.5120"
"44.7200","4.3096","0.5127"
"44.8000","4.3163","0.5133"
"44.8800","4.3229","0.5141"
"44.9600","4.3295","0.5149"
"45.0400","4.3361","0.5156"
"45.1200","4.3429","0.5161"
"45.2000","4.3495","0.5166"
"45.2800","4.3563","0.5172"
"45.3600","4.3628","0.5182"
"45.4400","4.3696","0.5187"
"45.5200","4.3762","0.5194"
"45.6000","4.3828","0.5202"
"45.6800","4.3895","0.5207"
"45.7600","4.3961","0.5212"
"45.8400","4.4028","0.5224"
"45.9200","4.4094","0.5226"
"46.0000","4.4162","0.5234"
"46.0800","4.4229","0.5238"
"46.1600","4.4296","0.5251"
"46.2400","4.4362","0.5253"
"46.3200","4.4427","0.5261"
"46.4000","4.4495","0.5269"
"46.4800","4.4561","0.5277"
"46.5600","4.4629","0.5286"
"46.6400","4.4695","0.5288"
"46.7200","4.4763","0.5295"
"46.8000","4.4829","0.5298"
"46.8800","4.4894","0.5306"
"46.9600","4.4962","0.5316"
"47.0400","4.5027","0.5323"
"47.1200","4.5095","0.5329"
"47.2000","4.5161","0.5334"
"47.2800","4.5229","0.5342"
"47.3600","4.5296","0.5349"
"47.4400","4.5362","0.5356"
"47.5200","4.5428","0.5358"
"47.6000","4.5494","0.5367"
"47.6800","4.5562","0.5374"
"47.7600","4.5628","0.5381"
"47.8400","4.5696","0.5386"
"47.9200","4.5762","0.5390"
"48.0000","4.5830","0.5401"
"48.0800","4.5895","0.5407"
"48.1600","4.5962","0.5410"
"48.2400","4.6028","0.5420"
"48.3200","4.6094","0.5426"
"48.4000","4.6161","0.5433"
"48.4800","4.6228","0.5437"
"48.5600","4.6296","0.5446"
"48.6400","4.6362","0.5451"
"48.7200","4.6429","0.5458"
"48.8000","4.6495","0.5466"
"48.8800","4.6562","0.5471"
"48.9600","4.6628","0.5478"
"49.0400","4.6694","0.5485"
"49.1200","4.6761","0.5491"
"49.2000","4.6828","0.5497"
"49.2800","4.6896","0.5503"
"49.3600","4.6961","0.5512"
"49.4400","4.7029","0.5515"
"49.5200","4.7096","0.5521"
"49.6000","4.7161","0.5526"
"49.6800","4.7228","0.5535"
"49.7600","4.7294","0.5537"
"49.8400","4.7363","0.5550"
"49.9200","4.7429","0.5552"
"50.0000","4.7496","0.5563"
"50.0800","4.7562","0.5565"
"50.1600","4.7629","0.5577"
"50.2400","4.7695","0.5580"
"50.3200","4.7760","0.5586"
"50.4000","4.7828","0.5591"
"50.4800","4.7894","0.5597"
"50.5600","4.7963","0.5604"
"50.6400","4.8028","0.5610"
"50.7200","4.8095","0.5617"
"50.8000","4.8163","0.5622"
"50.8800","4.8229","0.5628"
"50.9600","4.8295","0.5632"
"51.0400","4.8361","0.5644"
"51.1200","4.8429","0.5645"
"51.2000","4.8495","0.5653"
"51.2800","4.8561","0.5659"
"51.3600","4.8628","0.5669"
"51.4400","4.8696","0.5671"
"51.5200","4.8762","0.5679"
"51.6000","4.8828","0.5684"
"51.6800","4.8895","0.5691"
"51.7600","4.8961","0.5698"
"51.8400","4.9029","0.5705"
"51.9200","4.9094","0.5711"
"52.0000","4.9162","0.5716"
"52.0800","4.9229","0.5723"
"52.1600","4.9296","0.5728"
"52.2400","4.9361","0.5735"
"52.3200","4.9427","0.5744"
"52.4000","4.9496","0.5746"
"52.4800","4.9562","0.5755"
"52.5600","4.9629","0.5764"
"52.6400","4.9695","0.5767"
"52.7200","4.9763","0.5774"
"52.8000","4.9829","0.5778"
"52.8800","4.9894","0.5785"
"52.9600","4.9962","0.5792"
"53.0400","5.0028","0.5798"
"53.1200","5.0096","0.5804"
"53.2000","5.0161","0.5812"
"53.2800","5.0230","0.5818"
"53.3600","5.0295","0.5821"
"53.4400","5.0361","0.5828"
"53.5200","5.0427","0.5835"
"53.6000","5.0494","0.5842"
"53.6800","5.0562","0.5846"
"53.7600","5.0627","0.5855"
"53.8400","5.0696","0.5863"
"53.9200","5.0761","0.5865"
"54.0000","5.0829","0.5873"
"54.0800","5.0896","0.5883"
"54.1600","5.0962","0.5886"
"54.2400","5.1029","0.5893"
"54.3200","5.1095","0.5900"
"54.4000","5.1162","0.5905"
"54.4800","5.1228","0.5911"
"54.5600","5.1296","0.5920"
"54.6400","5.1362","0.5923"
"54.7200","5.1429","0.5928"
"54.8000","5.1495","0.5936"
"54.8800","5.1561","0.5941"
"54.9600","5.1628","0.5949"
"55.0400","5.1693","0.5954"
"55.1200","5.1762","0.5963"
"55.2000","5.1829","0.5968"
"55.2800","5.1896","0.5972"
"55.3600","5.1962","0.5979"
"55.4400","5.2028","0.5988"
"55.5200","5.2096","0.5992"
"55.6000","5.2162","0.5999"
"55.6800","5.2228","0.6001"
"55.7600","5.2294","0.6012"
"55.8400","5.2363","0.6013"
"55.9200","5.2429","0.6022"
"56.0000","5.2496","0.6029"
"56.0800","5.2562","0.6035"
"56.1600","5.2629","0.6041"
"56.2400","5.2696","0.6046"
"56.3200","5.2761","0.6057"
"56.4000","5.2829","0.6064"
"56.4800","5.2895","0.6065"
"56.5600","5.2962","0.6073"
"56.6400","5.3027","0.6081"
"56.7200","5.3095","0.6086"
"56.8000","5.3162","0.6092"
"56.8800","5.3229","0.6097"
"56.9600","5.3296","0.6105"
"57.0400","5.3361","0.6112"
"57.1200","5.3428","0.6120"
"57.2000","5.3494","0.6124"
"57.2800","5.3563","0.6131"
"57.3600","5.3629","0.6138"
"57.4400","5.3696","0.6142"
"57.5200","5.3762","0.6150"
"57.6000","5.3828","0.6155"
"57.6800","5.3895","0.6162"
"57.7600","5.3961","0.6169"
"57.8400","5.4029","0.6173"
"57.9200","5.4094","0.6178"
"58.0000","5.4162","0.6188"
"58.0800","5.4229","0.6193"
"58.1600","5.4295","0.6199"
"58.2400","5.4361","0.6204"
"58.3200","5.4428","0.6212"
"58.4000","5.4496","0.6109"
"58.4800","5.4562","0.6107"
"58.5600","5.4629","0.6113"
"58.6400","5.4696","0.6111"
"58.7200","5.4763","0.6120"
"58.8000","5.4829","0.6120"
"58.8800","5.4894","0.6104"
"58.9600","5.4961","0.6097"
"59.0400","5.5028","0.6103"
"59.1200","5.5096","0.6105"
"59.2000","5.5161","0.6108"
"59.2800","5.5229","0.6116"
"59.3600","5.5295","0.6118"
"59.4400","5.5362","0.6124"
"59.5200","5.5428","0.6128"
"59.6000","5.5495","0.6137"
"59.6800","5.5562","0.6141"
"59.7600","5.5628","0.6144"
"59.8400","5.5695","0.6151"
"59.9200","5.5761","0.6158"
"60.0000","5.5830","0.6161"
"60.0800","5.5895","0.6170"
"60.1600","5.5962","0.6176"
"60.2400","5.6028","0.6184"
"60.3200","5.6094","0.6189"
"60.4000","5.6161","0.6193"
"60.4800","5.6228","0.6201"
"60.5600","5.6296","0.6206"
"60.6400","5.6363","0.6212"
"60.7200","5.6429","0.6217"
"60.8000","5.6495","0.6225"
"60.8800","5.6561","0.6231"
"60.9600","5.6627","0.6239"
"61.0400","5.6694","0.6241"
"61.1200","5.6762","0.6244"
"61.2000","5.6829","0.6259"
"61.2800","5.6897","0.6260"
"61.3600","5.6962","0.6235"
"61.4400","5.7028","0.6222"
"61.5200","5.7096","0.6221"
"61.6000","5.7162","0.6202"
"61.6800","5.7228","0.6205"
"61.7600","5.7294","0.6205"
"61.8400","5.7363","0.6211"
"61.9200","5.7429","0.6216"
"62.0000","5.7496","0.6223"
"62.0800","5.7561","0.6224"
"62.1600","5.7628","0.6234"
"62.2400","5.7696","0.6181"
"62.3200","5.7761","0.6182"
"62.4000","5.7828","0.6185"
"62.4800","5.7894","0.6187"
"62.5600","5.7962","0.6194"
"62.6400","5.8028","0.6197"
"62.7200","5.8096","0.6207"
"62.8000","5.8163","0.6205"
"62.8800","5.8229","0.6215"
"62.9600","5.8295","0.6220"
"63.0400","5.8361","0.6224"
"63.1200","5.8429","0.6230"
"63.2000","5.8495","0.6237"
"63.2800","5.8563","0.6240"
"63.3600","5.8628","0.6247"
"63.4400","5.8696","0.6250"
"63.5200","5.8762","0.6261"
"63.6000","5.8828","0.6266"
"63.6800","5.8895","0.6268"
"63.7600","5.8962","0.6274"
"63.8400","5.9029","0.6281"
"63.9200","5.9095","0.6286"
"64.0000","5.9162","0.6291"
"64.0800","5.9229","0.6299"
"64.1600","5.9295","0.6303"
"64.2400","5.9361","0.6310"
"64.3200","5.9428","0.6317"
"64.4000","5.9496","0.6322"
"64.4800","5.9562","0.6329"
"64.5600","5.9629","0.6331"
"64.6400","5.9695","0.6340"
"64.7200","5.9762","0.6344"
"64.8000","5.9828","0.6353"
"64.8800","5.9894","0.6357"
"64.9600","5.9963","0.6364"
"65.0400","6.0029","0.6369"
"65.1200","6.0096","0.6375"
"65.2000","6.0161","0.6379"
"65.2800","6.0229","0.6386"
"65.3600","6.0295","0.6388"
"65.4400","6.0362","0.6392"
"65.5200","6.0428","0.6399"
"65.6000","6.0494","0.6409"
"65.6800","6.0562","0.6413"
"65.7600","6.0627","0.6417"
"65.8400","6.0696","0.6423"
"65.9200","6.0762","0.6427"
"66.0000","6.0830","0.6381"
"66.0800","6.0894","0.6390"
"66.1600","6.0961","0.6391"
"66.2400","6.1028","0.6394"
"66.3200","6.1094","0.6399"
"66.4000","6.1161","0.6399"
"66.4800","6.1228","0.6409"
"66.5600","6.1296","0.6412"
"66.6400","6.1362","0.6415"
"66.7200","6.1429","0.6420"
"66.8000","6.1494","0.6431"
"66.8800","6.1562","0.6431"
"66.9600","6.1628","0.6437"
"67.0400","6.1694","0.6442"
"67.1200","6.1762","0.6449"
"67.2000","6.1829","0.6451"
"67.2800","6.1896","0.6461"
"67.3600","6.1961","0.6460"
"67.4400","6.2028","0.6468"
"67.5200","6.2096","0.6472"
"67.6000","6.2162","0.6481"
"67.6800","6.2228","0.6484"
"67.7600","6.2294","0.6489"
"67.8400","6.2362","0.6497"
"67.9200","6.2429","0.6499"
"68.0000","6.2496","0.6508"
"68.0800","6.2563","0.6511"
"68.1600","6.2629","0.6515"
"68.2400","6.2696","0.6520"
"68.3200","6.2761","0.6528"
"68.4000","6.2828","0.6533"
"68.4800","6.2894","0.6538"
"68.5600","6.2962","0.6541"
"68.6400","6.3027","0.6547"
"68.7200","6.3096","0.6552"
"68.8000","6.3163","0.6557"
"68.8800","6.3229","0.6562"
"68.9600","6.3295","0.6566"
"69.0400","6.3361","0.6576"
"69.1200","6.3429","0.6578"
"69.2000","6.3495","0.6583"
"69.2800","6.3562","0.6591"
"69.3600","6.3627","0.6594"
"69.4400","6.3696","0.6597"
"69.5200","6.3761","0.6604"
"69.6000","6.3828","0.6611"
"69.6800","6.3895","0.6614"
"69.7600","6.3962","0.6621"
"69.8400","6.4029","0.6626"
"69.9200","6.4094","0.6630"
"70.0000","6.4162","0.6637"
"70.0800","6.4229","0.6639"
"70.1600","6.4295","0.6646"
"70.2400","6.4361","0.6650"
"70.3200","6.4427","0.6656"
"70.4000","6.4496","0.6575"
"70.4800","6.4562","0.6575"
"70.5600","6.4629","0.6574"
"70.6400","6.4695","0.6576"
"70.7200","6.4763","0.6575"
"70.8000","6.4829","0.6581"
"70.8800","6.4894","0.6515"
"70.9600","6.4962","0.6506"
"71.0400","6.5028","0.6512"
"71.1200","6.5096","0.6509"
"71.2000","6.5161","0.6514"
"71.2800","6.5229","0.6512"
"71.3600","6.5296","0.6518"
"71.4400","6.5363","0.6517"
"71.5200","6.5428","0.6528"
"71.6000","6.5494","0.6526"
"71.6800","6.5562","0.6530"
"71.7600","6.5628","0.6532"
"71.8400","6.5696","0.6539"
"71.9200","6.5762","0.6544"
"72.0000","6.5829","0.6545"
"72.0800","6.5894","0.6551"
"72.1600","6.5961","0.6557"
"72.2400","6.6028","0.6561"
"72.3200","6.6094","0.6566"
"72.4000","6.6161","0.6570"
"72.4800","6.6228","0.6574"
"72.5600","6.6296","0.6581"
"72.6400","6.6363","0.6584"
"72.7200","6.6428","0.6590"
"72.8000","6.6494","0.6592"
"72.8800","6.6561","0.6596"
"72.9600","6.6629","0.6602"
"73.0400","6.6694","0.6609"
"73.1200","6.6761","0.6615"
"73.2000","6.6829","0.6618"
"73.2800","6.6896","0.6621"
"73.3600","6.6962","0.6629"
"73.4400","6.7028","0.6631"
"73.5200","6.7096","0.6640"
"73.6000","6.7162","0.6646"
"73.6800","6.7229","0.6645"
"73.7600","6.7294","0.6651"
"73.8400","6.7362","0.6658"
"73.9200","6.7429","0.6660"
"74.0000","6.7496","0.6666"
"74.0800","6.7562","0.6668"
"74.1600","6.7629","0.6673"
"74.2400","6.7696","0.6676"
"74.3200","6.7761","0.6682"
"74.4000","6.7828","0.6689"
"74.4800","6.7894","0.6690"
"74.5600","6.7963","0.6698"
"74.6400","6.8028","0.6703"
"74.7200","6.8095","0.6707"
"74.8000","6.8163","0.6711"
"74.8800","6.8229","0.6716"
"74.9600","6.8295","0.6718"
"75.0400","6.8361","0.6725"
"75.1200","6.8429","0.6729"
"75.2000","6.8495","0.6733"
"75.2800","6.8562","0.6742"
"75.3600","6.8628","0.6746"
"75.4400","6.8696","0.6750"
"75.5200","6.8762","0.6755"
"75.6000","6.8828","0.6759"
"75.6800","6.8895","0.6767"
"75.7600","6.8962","0.6769"
"75.8400","6.9029","0.6773"
"75.9200","6.9094","0.6780"
"76.0000","6.9161","0.6782"
"76.0800","6.9229","0.6789"
"76.1600","6.9295","0.6791"
"76.2400","6.9361","0.6797"
"76.3200","6.9427","0.6804"
"76.4000","6.9496","0.6809"
"76.4800","6.9561","0.6810"
"76.5600","6.9628","0.6817"
"76.6400","6.9694","0.6822"
"76.7200","6.9762","0.6825"
"76.8000","6.9829","0.6831"
"76.8800","6.9894","0.6834"
"76.9600","6.9962","0.6836"
"77.0400","7.0028","0.6807"
"77.1200","7.0096","0.6750"
"77.2000","7.0161","0.6750"
"77.2800","7.0229","0.6754"
"77.3600","7.0296","0.6755"
"77.4400","7.0362","0.6760"
"77.5200","7.0428","0.6762"
"77.6000","7.0494","0.6763"
"77.6800","7.0562","0.6769"
"77.7600","7.0628","0.6776"
"77.8400","7.0696","0.6776"
"77.9200","7.0762","0.6785"
"78.0000","7.0829","0.6784"
"78.0800","7.0895","0.6797"
"78.1600","7.0961","0.6798"
"78.2400","7.1028","0.6800"
"78.3200","7.1095","0.6806"
"78.4000","7.1161","0.6809"
"78.4800","7.1228","0.6816"
"78.5600","7.1296","0.6821"
"78.6400","7.1362","0.6825"
"78.7200","7.1429","0.6744"
"78.8000","7.1495","0.6745"
"78.8800","7.1561","0.6747"
"78.9600","7.1628","0.6750"
"79.0400","7.1694","0.6756"
"79.1200","7.1761","0.6759"
"79.2000","7.1828","0.6763"
"79.2800","7.1896","0.6764"
"79.3600","7.1962","0.6770"
"79.4400","7.2028","0.6776"
"79.5200","7.2096","0.6779"
"79.6000","7.2162","0.6783"
"79.6800","7.2228","0.6783"
"79.7600","7.2294","0.6790"
"79.8400","7.2363","0.6795"
"79.9200","7.2429","0.6801"
"80.0000","7.2496","0.6805"
"80.0800","7.2562","0.6809"
"80.1600","7.2629","0.6811"
"80.2400","7.2696","0.6815"
"80.3200","7.2761","0.6818"
"80.4000","7.2828","0.6828"
"80.4800","7.2895","0.6828"
"80.5600","7.2963","0.6830"
"80.6400","7.3028","0.6840"
"80.7200","7.3095","0.6843"
"80.8000","7.3162","0.6847"
"80.8800","7.3229","0.6851"
"80.9600","7.3295","0.6857"
"81.0400","7.3361","0.6864"
"81.1200","7.3429","0.6866"
"81.2000","7.3494","0.6866"
"81.2800","7.3562","0.6808"
"81.3600","7.3628","0.6802"
"81.4400","7.3696","0.6806"
"81.5200","7.3762","0.6773"
"81.6000","7.3828","0.6768"
"81.6800","7.3894","0.6771"
"81.7600","7.3962","0.6767"
"81.8400","7.4029","0.6771"
"81.9200","7.4094","0.6769"
"82.0000","7.4162","0.6773"
"82.0800","7.4229","0.6777"
"82.1600","7.4295","0.6782"
"82.2400","7.4361","0.6784"
"82.3200","7.4427","0.6791"
"82.4000","7.4496","0.6790"
"82.4800","7.4562","0.6797"
"82.5600","7.4629","0.6799"
"82.6400","7.4695","0.6804"
"82.7200","7.4763","0.6810"
"82.8000","7.4829","0.6812"
"82.8800","7.4894","0.6816"
"82.9600","7.4962","0.6815"
"83.0400","7.5028","0.6823"
"83.1200","7.5096","0.6828"
"83.2000","7.5161","0.6830"
"83.2800","7.5229","0.6835"
"83.3600","7.5296","0.6838"
"83.4400","7.5362","0.6843"
"83.5200","7.5428","0.6845"
"83.6000","7.5494","0.6852"
"83.6800","7.5563","0.6857"
"83.7600","7.5628","0.6858"
"83.8400","7.5695","0.6863"
"83.9200","7.5761","0.6871"
"84.0000","7.5829","0.6877"
"84.0800","7.5894","0.6876"
"84.1600","7.5962","0.6881"
"84.2400","7.6029","0.6883"
"84.3200","7.6095","0.6891"
"84.4000","7.6161","0.6893"
"84.4800","7.6227","0.6900"
"84.5600","7.6296","0.6903"
"84.6400","7.6362","0.6908"
"84.7200","7.6429","0.6913"
"84.8000","7.6495","0.6916"
"84.8800","7.6561","0.6926"
"84.9600","7.6628","0.6925"
"85.0400","7.6693","0.6929"
"85.1200","7.6761","0.6933"
"85.2000","7.6828","0.6938"
"85.2800","7.6896","0.6942"
"85.3600","7.6962","0.6950"
"85.4400","7.7029","0.6953"
"85.5200","7.7096","0.6955"
"85.6000","7.7162","0.6955"
"85.6800","7.7228","0.6964"
"85.7600","7.7294","0.6966"
"85.8400","7.7363","0.6973"
"85.9200","7.7429","0.6977"
"86.0000","7.7496","0.6982"
"86.0800","7.7563","0.6986"
"86.1600","7.7629","0.6992"
"86.2400","7.7696","0.6992"
"86.3200","7.7761","0.6998"
"86.4000","7.7828","0.7000"
"86.4800","7.7894","0.7003"
"86.5600","7.7963","0.7007"
"86.6400","7.8028","0.7010"
"86.7200","7.8096","0.7018"
"86.8000","7.8163","0.7018"
"86.8800","7.8229","0.7021"
"86.9600","7.8295","0.7025"
"87.0400","7.8361","0.7030"
"87.1200","7.8429","0.7034"
"87.2000","7.8494","0.7038"
"87.2800","7.8562","0.7043"
"87.3600","7.8628","0.7049"
"87.4400","7.8696","0.7052"
"87.5200","7.8762","0.7058"
"87.6000","7.8828","0.7060"
"87.6800","7.8895","0.7064"
"87.7600","7.8961","0.7064"
"87.8400","7.9029","0.7070"
"87.9200","7.9094","0.7073"
"88.0000","7.9162","0.7072"
"88.0800","7.9229","0.7080"
"88.1600","7.9295","0.7083"
"88.2400","7.9361","0.7091"
"88.3200","7.9427","0.7092"
"88.4000","7.9496","0.7096"
"88.4800","7.9561","0.7097"
"88.5600","7.9629","0.7104"
"88.6400","7.9695","0.7107"
"88.7200","7.9763","0.7112"
"88.8000","7.9829","0.7111"
"88.8800","7.9894","0.7116"
"88.9600","7.9962","0.7113"
"89.0400","8.0028","0.7119"
"89.1200","8.0096","0.7121"
"89.2000","8.0161","0.7119"
"89.2800","8.0230","0.7126"
"89.3600","8.0296","0.7129"
"89.4400","8.0362","0.7131"
"89.5200","8.0428","0.7133"
"89.6000","8.0494","0.7137"
"89.6800","8.0562","0.7143"
"89.7600","8.0627","0.7144"
"89.8400","8.0696","0.7149"
"89.9200","8.0762","0.7152"
"90.0000","8.0829","0.7156"
"90.0800","8.0895","0.7161"
"90.1600","8.0962","0.7166"
"90.2400","8.1028","0.7170"
"90.3200","8.1094","0.7169"
"90.4000","8.1161","0.7174"
"90.4800","8.1228","0.7161"
"90.5600","8.1296","0.7160"
"90.6400","8.1363","0.7145"
"90.7200","8.1429","0.7147"
"90.8000","8.1495","0.7150"
"90.8800","8.1561","0.7156"
"90.9600","8.1628","0.7156"
"91.0400","8.1694","0.7162"
"91.1200","8.1761","0.7165"
"91.2000","8.1829","0.7164"
"91.2800","8.1896","0.7170"
"91.3600","8.1962","0.7175"
"91.4400","8.2028","0.7179"
"91.5200","8.2096","0.7181"
"91.6000","8.2161","0.7183"
"91.6800","8.2228","0.7186"
"91.7600","8.2294","0.7186"
"91.8400","8.2363","0.7198"
"91.9200","8.2429","0.7201"
"92.0000","8.2496","0.7201"
"92.0800","8.2562","0.7204"
"92.1600","8.2629","0.7179"
"92.2400","8.2696","0.7180"
"92.3200","8.2761","0.7183"
"92.4000","8.2828","0.7185"
"92.4800","8.2895","0.7186"
"92.5600","8.2963","0.7184"
"92.6400","8.3027","0.7192"
"92.7200","8.3095","0.7194"
"92.8000","8.3163","0.7193"
"92.8800","8.3229","0.7188"
"92.9600","8.3295","0.7164"
"93.0400","8.3361","0.7164"
"93.1200","8.3429","0.7163"
"93.2000","8.3496","0.7170"
"93.2800","8.3563","0.7171"
"93.3600","8.3629","0.7173"
"93.4400","8.3696","0.7175"
"93.5200","8.3762","0.7182"
"93.6000","8.3828","0.7180"
"93.6800","8.3895","0.7173"
"93.7600","8.3962","0.7173"
"93.8400","8.4029","0.7177"
"93.9200","8.4095","0.7176"
"94.0000","8.4162","0.7176"
"94.0800","8.4229","0.7183"
"94.1600","8.4295","0.7184"
"94.2400","8.4361","0.7187"
"94.3200","8.4427","0.7190"
"94.4000","8.4496","0.7189"
"94.4800","8.4562","0.7194"
"94.5600","8.4629","0.7192"
"94.6400","8.4695","0.7190"
"94.7200","8.4762","0.7195"
"94.8000","8.4829","0.7196"
"94.8800","8.4894","0.7192"
"94.9600","8.4962","0.7194"
"95.0400","8.5028","0.7198"
"95.1200","8.5096","0.7204"
"95.2000","8.5161","0.7197"
"95.2800","8.5229","0.7200"
"95.3600","8.5296","0.7196"
"95.4400","8.5363","0.7193"
"95.5200","8.5428","0.7198"
"95.6000","8.5494","0.7194"
"95.6800","8.5562","0.7189"
"95.7600","8.5627","0.7192"
"95.8400","8.5696","0.7189"
"95.9200","8.5762","0.7191"
"96.0000","8.5831","0.7189"
"96.0800","8.5895","0.7193"
"96.1600","8.5961","0.7187"
"96.2400","8.6028","0.7191"
"96.3200","8.6094","0.7188"
"96.4000","8.6161","0.7192"
"96.4800","8.6228","0.7190"
"96.5600","8.6296","0.7190"
"96.6400","8.6362","0.7185"
"96.7200","8.6429","0.7186"
"96.8000","8.6495","0.7187"
"96.8800","8.6561","0.7190"
"96.9600","8.6629","0.7178"
"97.0400","8.6694","0.7176"
"97.1200","8.6762","0.7175"
"97.2000","8.6829","0.7173"
"97.2800","8.6896","0.7145"
"97.3600","8.6962","0.7131"
"97.4400","8.7029","0.7128"
"97.5200","8.7096","0.7123"
"97.6000","8.7162","0.7117"
"97.6800","8.7228","0.7114"
"97.7600","8.7294","0.7094"
"97.8400","8.7362","0.7080"
"97.9200","8.7429","0.7069"
"98.0000","8.7496","0.7054"
"98.0800","8.7562","0.7029"
"98.1600","8.7629","0.6980"
"98.2400","8.7696","0.6935"
"98.3200","8.7761","0.6879"
"98.4000","8.7828","0.6254"
"98.4300","8.7855","0.4070"