File: flexural/ES100_Trevor_Flexural_Data_16_1.csv
Specimen text inputs : Specimen text input  1,,""

Results Table 1
,Specimen text input  1
"16","bf_f2"

Results Table 2

Time,Displacement,Force
(s),(mm),(kN)
"0.0000","0.5600","0.0204"
"0.0800","0.5688","0.0239"
"0.1600","0.5727","0.0242"
"0.2400","0.5790","0.0253"
"0.3200","0.5854","0.0266"
"0.4000","0.5921","0.0277"
"0.4800","0.5987","0.0294"
"0.5600","0.6055","0.0306"
"0.6400","0.6121","0.0317"
"0.7200","0.6189","0.0333"
"0.8000","0.6255","0.0347"
"0.8800","0.6322","0.0356"
"0.9600","0.6389","0.0370"
"1.0400","0.6454","0.0382"
"1.1200","0.6522","0.0398"
"1.2000","0.6587","0.0409"
"1.2800","0.6655","0.0424"
"1.3600","0.6722","0.0442"
"1.4400","0.6789","0.0454"
"1.5200","0.6855","0.0466"
"1.6000","0.6921","0.0483"
"1.6800","0.6989","0.0494"
"1.7600","0.7054","0.0507"
"1.8400","0.7122","0.0518"
"1.9200","0.7188","0.0537"
"2.0000","0.7256","0.0552"
"2.0800","0.7321","0.0564"
"2.1600","0.7388","0.0581"
"2.2400","0.7455","0.0592"
"2.3200","0.7522","0.0608"
"2.4000","0.7589","0.0623"
"2.4800","0.7654","0.0636"
"2.5600","0.7722","0.0652"
"2.6400","0.7788","0.0666"
"2.7200","0.7856","0.0682"
"2.8000","0.7921","0.0697"
"2.8800","0.7988","0.0706"
"2.9600","0.8055","0.0728"
"3.0400","0.8121","0.0741"
"3.1200","0.8189","0.0758"
"3.2000","0.8255","0.0772"
"3.2800","0.8322","0.0785"
"3.3600","0.8388","0.0798"
"3.4400","0.8455","0.0814"
"3.5200","0.8522","0.0830"
"3.6000","0.8588","0.0843"
"3.6800","0.8654","0.0862"
"3.7600","0.8721","0.0875"
"3.8400","0.8789","0.0890"
"3.9200","0.8855","0.0904"
"4.0000","0.8922","0.0920"
"4.0800","0.8988","0.0934"
"4.1600","0.9055","0.0951"
"4.2400","0.9121","0.0965"
"4.3200","0.9187","0.0978"
"4.4000","0.9254","0.0996"
"4.4800","0.9321","0.1012"
"4.5600","0.9389","0.1025"
"4.6400","0.9455","0.1041"
"4.7200","0.9523","0.1058"
"4.8000","0.9589","0.1074"
"4.8800","0.9655","0.1087"
"4.9600","0.9721","0.1101"
"5.0400","0.9787","0.1117"
"5.1200","0.9856","0.1135"
"5.2000","0.9922","0.1150"
"5.2800","0.9989","0.1165"
"5.3600","1.0055","0.1180"
"5.4400","1.0123","0.1191"
"5.5200","1.0189","0.1207"
"5.6000","1.0254","0.1227"
"5.6800","1.0321","0.1238"
"5.7600","1.0388","0.1251"
"5.8400","1.0456","0.1265"
"5.9200","1.0521","0.1281"
"6.0000","1.0589","0.1296"
"6.0800","1.0655","0.1310"
"6.1600","1.0722","0.1324"
"6.2400","1.0788","0.1340"
"6.3200","1.0854","0.1360"
"6.4000","1.0922","0.1370"
"6.4800","1.0987","0.1386"
"6.5600","1.1054","0.1401"
"6.6400","1.1121","0.1418"
"6.7200","1.1189","0.1429"
"6.8000","1.1255","0.1444"
"6.8800","1.1322","0.1463"
"6.9600","1.1388","0.1473"
"7.0400","1.1454","0.1491"
"7.1200","1.1521","0.1504"
"7.2000","1.1588","0.1521"
"7.2800","1.1656","0.1535"
"7.3600","1.1723","0.1554"
"7.4400","1.1789","0.1572"
"7.5200","1.1855","0.1583"
"7.6000","1.1921","0.1601"
"7.6800","1.1989","0.1611"
"7.7600","1.2054","0.1628"
"7.8400","1.2122","0.1644"
"7.9200","1.2188","0.1660"
"8.0000","1.2256","0.1675"
"8.0800","1.2321","0.1690"
"8.1600","1.2388","0.1705"
"8.2400","1.2456","0.1718"
"8.3200","1.2522","0.1737"
"8.4000","1.2589","0.1750"
"8.4800","1.2654","0.1765"
"8.5600","1.2723","0.1784"
"8.6400","1.2789","0.1794"
"8.7200","1.2855","0.1810"
"8.8000","1.2921","0.1829"
"8.8800","1.2988","0.1842"
"8.9600","1.3056","0.1854"
"9.0400","1.3121","0.1872"
"9.1200","1.3189","0.1888"
"9.2000","1.3255","0.1900"
"9.2800","1.3323","0.1917"
"9.3600","1.3388","0.1930"
"9.4400","1.3456","0.1947"
"9.5200","1.3522","0.1964"
"9.6000","1.3588","0.1974"
"9.6800","1.3654","0.1992"
"9.7600","1.3720","0.2009"
"9.8400","1.3789","0.2023"
"9.9200","1.3856","0.2040"
"10.0000","1.3923","0.2052"
"10.0800","1.3989","0.2070"
"10.1600","1.4056","0.2081"
"10.2400","1.4122","0.2097"
"10.3200","1.4187","0.2110"
"10.4000","1.4254","0.2127"
"10.4800","1.4321","0.2141"
"10.5600","1.4390","0.2159"
"10.6400","1.4455","0.2173"
"10.7200","1.4522","0.2190"
"10.8000","1.4589","0.2202"
"10.8800","1.4656","0.2216"
"10.9600","1.4722","0.2235"
"11.0400","1.4787","0.2248"
"11.1200","1.4856","0.2263"
"11.2000","1.4922","0.2280"
"11.2800","1.4989","0.2292"
"11.3600","1.5055","0.2305"
"11.4400","1.5123","0.2326"
"11.5200","1.5189","0.2339"
"11.6000","1.5254","0.2351"
"11.6800","1.5321","0.2366"
"11.7600","1.5387","0.2381"
"11.8400","1.5456","0.2392"
"11.9200","1.5521","0.2411"
"12.0000","1.5589","0.2426"
"12.0800","1.5656","0.2441"
"12.1600","1.5723","0.2456"
"12.2400","1.5788","0.2472"
"12.3200","1.5854","0.2490"
"12.4000","1.5922","0.2500"
"12.4800","1.5987","0.2516"
"12.5600","1.6055","0.2529"
"12.6400","1.6121","0.2542"
"12.7200","1.6189","0.2561"
"12.8000","1.6254","0.2578"
"12.8800","1.6322","0.2590"
"12.9600","1.6389","0.2602"
"13.0400","1.6454","0.2615"
"13.1200","1.6522","0.2633"
"13.2000","1.6588","0.2651"
"13.2800","1.6656","0.2661"
"13.3600","1.6722","0.2680"
"13.4400","1.6788","0.2692"
"13.5200","1.6854","0.2708"
"13.6000","1.6921","0.2724"
"13.6800","1.6989","0.2737"
"13.7600","1.7054","0.2757"
"13.8400","1.7122","0.2768"
"13.9200","1.7189","0.2785"
"14.0000","1.7256","0.2802"
"14.0800","1.7321","0.2813"
"14.1600","1.7388","0.2825"
"14.2400","1.7456","0.2846"
"14.3200","1.7522","0.2862"
"14.4000","1.7589","0.2873"
"14.4800","1.7654","0.2888"
"14.5600","1.7722","0.2904"
"14.6400","1.7788","0.2924"
"14.7200","1.7856","0.2929"
"14.8000","1.7921","0.2951"
"14.8800","1.7989","0.2966"
"14.9600","1.8055","0.2983"
"15.0400","1.8121","0.2997"
"15.1200","1.8188","0.3009"
"15.2000","1.8255","0.3021"
"15.2800","1.8322","0.3037"
"15.3600","1.8388","0.3053"
"15.4400","1.8455","0.3071"
"15.5200","1.8522","0.3083"
"15.6000","1.8588","0.3094"
"15.6800","1.8654","0.3113"
"15.7600","1.8721","0.3129"
"15.8400","1.8789","0.3141"
"15.9200","1.8856","0.3156"
"16.0000","1.8923","0.3172"
"16.0800","1.8988","0.3188"
"16.1600","1.9056","0.3202"
"16.2400","1.9121","0.3215"
"16.3200","1.9187","0.3230"
"16.4000","1.9254","0.3245"
"16.4800","1.9322","0.3259"
"16.5600","1.9389","0.3277"
"16.6400","1.9454","0.3290"
"16.7200","1.9522","0.3308"
"16.8000","1.9589","0.3315"
"16.8800","1.9655","0.3332"
"16.9600","1.9722","0.3347"
"17.0400","1.9788","0.3362"
"17.1200","1.9856","0.3375"
"17.2000","1.9922","0.3390"
"17.2800","1.9989","0.3405"
"17.3600","2.0055","0.3418"
"17.4400","2.0123","0.3433"
"17.5200","2.0189","0.3448"
"17.6000","2.0254","0.3460"
"17.6800","2.0322","0.3478"
"17.7600","2.0388","0.3490"
"17.8400","2.0456","0.3505"
"17.9200","2.0521","0.3521"
"18.0000","2.0589","0.3532"
"18.0800","2.0656","0.3547"
"18.1600","2.0722","0.3563"
"18.2400","2.0788","0.3575"
"18.3200","2.0855","0.3592"
"18.4000","2.0922","0.3605"
"18.4800","2.0988","0.3624"
"18.5600","2.1056","0.3633"
"18.6400","2.1122","0.3649"
"18.7200","2.1189","0.3662"
"18.8000","2.1255","0.3678"
"18.8800","2.1322","0.3691"
"18.9600","2.1389","0.3706"
"19.0400","2.1455","0.3719"
"19.1200","2.1521","0.3732"
"19.2000","2.1588","0.3747"
"19.2800","2.1656","0.3765"
"19.3600","2.1722","0.3780"
"19.4400","2.1789","0.3793"
"19.5200","2.1854","0.3809"
"19.6000","2.1921","0.3823"
"19.6800","2.1989","0.3837"
"19.7600","2.2054","0.3848"
"19.8400","2.2122","0.3864"
"19.9200","2.2188","0.3878"
"20.0000","2.2256","0.3896"
"20.0800","2.2321","0.3909"
"20.1600","2.2388","0.3923"
"20.2400","2.2456","0.3940"
"20.3200","2.2522","0.3953"
"20.4000","2.2589","0.3962"
"20.4800","2.2654","0.3981"
"20.5600","2.2723","0.3997"
"20.6400","2.2789","0.4011"
"20.7200","2.2856","0.4026"
"20.8000","2.2922","0.4040"
"20.8800","2.2989","0.4055"
"20.9600","2.3056","0.4070"
"21.0400","2.3121","0.4083"
"21.1200","2.3188","0.4097"
"21.2000","2.3255","0.4115"
"21.2800","2.3323","0.4126"
"21.3600","2.3388","0.4142"
"21.4400","2.3456","0.4157"
"21.5200","2.3522","0.4172"
"21.6000","2.3588","0.4186"
"21.6800","2.3654","0.4199"
"21.7600","2.3721","0.4214"
"21.8400","2.3789","0.4228"
"21.9200","2.3856","0.4247"
"22.0000","2.3923","0.4257"
"22.0800","2.3988","0.4271"
"22.1600","2.4056","0.4287"
"22.2400","2.4121","0.4305"
"22.3200","2.4187","0.4312"
"22.4000","2.4254","0.4331"
"22.4800","2.4321","0.4346"
"22.5600","2.4389","0.4353"
"22.6400","2.4454","0.4372"
"22.7200","2.4522","0.4384"
"22.8000","2.4589","0.4398"
"22.8800","2.4656","0.4417"
"22.9600","2.4722","0.4431"
"23.0400","2.4788","0.4442"
"23.1200","2.4856","0.4457"
"23.2000","2.4921","0.4471"
"23.2800","2.4989","0.4485"
"23.3600","2.5055","0.4501"
"23.4400","2.5123","0.4512"
"23.5200","2.5189","0.4526"
"23.6000","2.5254","0.4540"
"23.6800","2.5322","0.4556"
"23.7600","2.5388","0.4567"
"23.8400","2.5456","0.4586"
"23.9200","2.5521","0.4597"
"24.0000","2.5589","0.4612"
"24.0800","2.5656","0.4622"
"24.1600","2.5723","0.4642"
"24.2400","2.5788","0.4652"
"24.3200","2.5854","0.4669"
"24.4000","2.5922","0.4682"
"24.4800","2.5988","0.4693"
"24.5600","2.6056","0.4710"
"24.6400","2.6122","0.4724"
"24.7200","2.6189","0.4740"
"24.8000","2.6254","0.4750"
"24.8800","2.6321","0.4762"
"24.9600","2.6388","0.4777"
"25.0400","2.6455","0.4794"
"25.1200","2.6522","0.4807"
"25.2000","2.6588","0.4822"
"25.2800","2.6656","0.4833"
"25.3600","2.6722","0.4849"
"25.4400","2.6789","0.4864"
"25.5200","2.6854","0.4879"
"25.6000","2.6921","0.4897"
"25.6800","2.6989","0.4912"
"25.7600","2.7054","0.4924"
"25.8400","2.7122","0.4938"
"25.9200","2.7188","0.4953"
"26.0000","2.7256","0.4965"
"26.0800","2.7321","0.4984"
"26.1600","2.7388","0.4995"
"26.2400","2.7456","0.5006"
"26.3200","2.7522","0.5025"
"26.4000","2.7588","0.5040"
"26.4800","2.7654","0.5052"
"26.5600","2.7723","0.5070"
"26.6400","2.7789","0.5082"
"26.7200","2.7856","0.5091"
"26.8000","2.7922","0.5110"
"26.8800","2.7988","0.5123"
"26.9600","2.8055","0.5134"
"27.0400","2.8121","0.5150"
"27.1200","2.8189","0.5165"
"27.2000","2.8256","0.5180"
"27.2800","2.8323","0.5191"
"27.3600","2.8388","0.5203"
"27.4400","2.8455","0.5221"
"27.5200","2.8521","0.5233"
"27.6000","2.8588","0.5247"
"27.6800","2.8654","0.5261"
"27.7600","2.8721","0.5276"
"27.8400","2.8789","0.5293"
"27.9200","2.8855","0.5303"
"28.0000","2.8922","0.5318"
"28.0800","2.8988","0.5328"
"28.1600","2.9055","0.5349"
"28.2400","2.9121","0.5358"
"28.3200","2.9188","0.5373"
"28.4000","2.9255","0.5388"
"28.4800","2.9322","0.5403"
"28.5600","2.9389","0.5416"
"28.6400","2.9455","0.5428"
"28.7200","2.9522","0.5443"
"28.8000","2.9589","0.5456"
"28.8800","2.9656","0.5469"
"28.9600","2.9721","0.5482"
"29.0400","2.9787","0.5495"
"29.1200","2.9856","0.5510"
"29.2000","2.9922","0.5523"
"29.2800","2.9989","0.5535"
"29.3600","3.0056","0.5551"
"29.4400","3.0123","0.5565"
"29.5200","3.0189","0.5576"
"29.6000","3.0254","0.5588"
"29.6800","3.0322","0.5602"
"29.7600","3.0387","0.5616"
"29.8400","3.0456","0.5631"
"29.9200","3.0521","0.5647"
"30.0000","3.0589","0.5655"
"30.0800","3.0656","0.5666"
"30.1600","3.0722","0.5684"
"30.2400","3.0788","0.5697"
"30.3200","3.0855","0.5707"
"30.4000","3.0922","0.5723"
"30.4800","3.0988","0.5734"
"30.5600","3.1055","0.5748"
"30.6400","3.1121","0.5765"
"30.7200","3.1189","0.5778"
"30.8000","3.1254","0.5791"
"30.8800","3.1322","0.5806"
"30.9600","3.1389","0.5815"
"31.0400","3.1455","0.5830"
"31.1200","3.1522","0.5844"
"31.2000","3.1588","0.5858"
"31.2800","3.1655","0.5874"
"31.3600","3.1722","0.5886"
"31.4400","3.1788","0.5898"
"31.5200","3.1854","0.5913"
"31.6000","3.1921","0.5927"
"31.6800","3.1989","0.5941"
"31.7600","3.2054","0.5949"
"31.8400","3.2122","0.5967"
"31.9200","3.2188","0.5981"
"32.0000","3.2256","0.5996"
"32.0800","3.2322","0.6010"
"32.1600","3.2388","0.6021"
"32.2400","3.2455","0.6034"
"32.3200","3.2521","0.6046"
"32.4000","3.2589","0.6063"
"32.4800","3.2654","0.6074"
"32.5600","3.2723","0.6089"
"32.6400","3.2789","0.6104"
"32.7200","3.2856","0.6116"
"32.8000","3.2921","0.6130"
"32.8800","3.2988","0.6145"
"32.9600","3.3055","0.6154"
"33.0400","3.3121","0.6170"
"33.1200","3.3189","0.6184"
"33.2000","3.3256","0.6196"
"33.2800","3.3324","0.6212"
"33.3600","3.3387","0.6222"
"33.4400","3.3455","0.6238"
"33.5200","3.3522","0.6250"
"33.6000","3.3588","0.6263"
"33.6800","3.3654","0.6274"
"33.7600","3.3721","0.6292"
"33.8400","3.3789","0.6303"
"33.9200","3.3855","0.6318"
"34.0000","3.3922","0.6328"
"34.0800","3.3988","0.6344"
"34.1600","3.4056","0.6355"
"34.2400","3.4121","0.6370"
"34.3200","3.4187","0.6383"
"34.4000","3.4254","0.6393"
"34.4800","3.4321","0.6409"
"34.5600","3.4389","0.6423"
"34.6400","3.4455","0.6436"
"34.7200","3.4523","0.6446"
"34.8000","3.4589","0.6462"
"34.8800","3.4655","0.6472"
"34.9600","3.4721","0.6489"
"35.0400","3.4787","0.6500"
"35.1200","3.4856","0.6515"
"35.2000","3.4922","0.6529"
"35.2800","3.4989","0.6541"
"35.3600","3.5056","0.6555"
"35.4400","3.5123","0.6562"
"35.5200","3.5189","0.6581"
"35.6000","3.5254","0.6591"
"35.6800","3.5321","0.6601"
"35.7600","3.5388","0.6615"
"35.8400","3.5456","0.6627"
"35.9200","3.5521","0.6643"
"36.0000","3.5589","0.6659"
"36.0800","3.5655","0.6667"
"36.1600","3.5722","0.6682"
"36.2400","3.5789","0.6695"
"36.3200","3.5855","0.6710"
"36.4000","3.5922","0.6720"
"36.4800","3.5988","0.6732"
"36.5600","3.6055","0.6745"
"36.6400","3.6121","0.6759"
"36.7200","3.6189","0.6767"
"36.8000","3.6255","0.6783"
"36.8800","3.6322","0.6797"
"36.9600","3.6388","0.6811"
"37.0400","3.6455","0.6820"
"37.1200","3.6521","0.6832"
"37.2000","3.6587","0.6845"
"37.2800","3.6656","0.6860"
"37.3600","3.6723","0.6875"
"37.4400","3.6789","0.6890"
"37.5200","3.6855","0.6898"
"37.6000","3.6921","0.6912"
"37.6800","3.6988","0.6925"
"37.7600","3.7054","0.6939"
"37.8400","3.7122","0.6951"
"37.9200","3.7189","0.6964"
"38.0000","3.7256","0.6979"
"38.0800","3.7322","0.6989"
"38.1600","3.7388","0.7002"
"38.2400","3.7456","0.7016"
"38.3200","3.7522","0.7029"
"38.4000","3.7589","0.7040"
"38.4800","3.7654","0.7055"
"38.5600","3.7723","0.7070"
"38.6400","3.7789","0.7079"
"38.7200","3.7854","0.7090"
"38.8000","3.7921","0.7105"
"38.8800","3.7988","0.7118"
"38.9600","3.8056","0.7128"
"39.0400","3.8121","0.7145"
"39.1200","3.8189","0.7159"
"39.2000","3.8254","0.7171"
"39.2800","3.8323","0.7182"
"39.3600","3.8388","0.7191"
"39.4400","3.8455","0.7202"
"39.5200","3.8521","0.7219"
"39.6000","3.8589","0.7229"
"39.6800","3.8655","0.7243"
"39.7600","3.8721","0.7259"
"39.8400","3.8789","0.7270"
"39.9200","3.8856","0.7280"
"40.0000","3.8922","0.7297"
"40.0800","3.8988","0.7308"
"40.1600","3.9056","0.7319"
"40.2400","3.9122","0.7334"
"40.3200","3.9187","0.7344"
"40.4000","3.9254","0.7359"
"40.4800","3.9321","0.7372"
"40.5600","3.9389","0.7385"
"40.6400","3.9456","0.7396"
"40.7200","3.9522","0.7412"
"40.8000","3.9589","0.7424"
"40.8800","3.9654","0.7432"
"40.9600","3.9721","0.7449"
"41.0400","3.9788","0.7459"
"41.1200","3.9856","0.7470"
"41.2000","3.9922","0.7485"
"41.2800","3.9989","0.7500"
"41.3600","4.0055","0.7511"
"41.4400","4.0123","0.7522"
"41.5200","4.0189","0.7533"
"41.6000","4.0254","0.7543"
"41.6800","4.0322","0.7559"
"41.7600","4.0388","0.7570"
"41.8400","4.0456","0.7585"
"41.9200","4.0521","0.7598"
"42.0000","4.0589","0.7610"
"42.0800","4.0656","0.7621"
"42.1600","4.0723","0.7635"
"42.2400","4.0788","0.7650"
"42.3200","4.0854","0.7659"
"42.4000","4.0922","0.7671"
"42.4800","4.0988","0.7685"
"42.5600","4.1055","0.7693"
"42.6400","4.1121","0.7709"
"42.7200","4.1189","0.7718"
"42.8000","4.1255","0.7730"
"42.8800","4.1322","0.7748"
"42.9600","4.1388","0.7757"
"43.0400","4.1454","0.7772"
"43.1200","4.1521","0.7782"
"43.2000","4.1588","0.7795"
"43.2800","4.1656","0.7806"
"43.3600","4.1723","0.7822"
"43.4400","4.1789","0.7832"
"43.5200","4.1854","0.7845"
"43.6000","4.1921","0.7856"
"43.6800","4.1988","0.7870"
"43.7600","4.2054","0.7878"
"43.8400","4.2123","0.7894"
"43.9200","4.2189","0.7907"
"44.0000","4.2256","0.7918"
"44.0800","4.2321","0.7931"
"44.1600","4.2388","0.7943"
"44.2400","4.2456","0.7960"
"44.3200","4.2522","0.7971"
"44.4000","4.2589","0.7982"
"44.4800","4.2654","0.7994"
"44.5600","4.2723","0.8007"
"44.6400","4.2788","0.8019"
"44.7200","4.2856","0.8031"
"44.8000","4.2921","0.8040"
"44.8800","4.2989","0.8052"
"44.9600","4.3056","0.8070"
"45.0400","4.3121","0.8080"
"45.1200","4.3188","0.8093"
"45.2000","4.3254","0.8108"
"45.2800","4.3323","0.8119"
"45.3600","4.3388","0.8127"
"45.4400","4.3456","0.8141"
"45.5200","4.3522","0.8151"
"45.6000","4.3589","0.8165"
"45.6800","4.3654","0.8177"
"45.7600","4.3721","0.8194"
"45.8400","4.3789","0.8204"
"45.9200","4.3855","0.8213"
"46.0000","4.3922","0.8227"
"46.0800","4.3988","0.8241"
"46.1600","4.4055","0.8254"
"46.2400","4.4121","0.8265"
"46.3200","4.4187","0.8277"
"46.4000","4.4254","0.8283"
"46.4800","4.4322","0.8298"
"46.5600","4.4389","0.8312"
"46.6400","4.4455","0.8323"
"46.7200","4.4521","0.8335"
"46.8000","4.4588","0.8348"
"46.8800","4.4654","0.8360"
"46.9600","4.4721","0.8374"
"47.0400","4.4787","0.8385"
"47.1200","4.4856","0.8396"
"47.2000","4.4923","0.8409"
"47.2800","4.4989","0.8419"
"47.3600","4.5056","0.8434"
"47.4400","4.5124","0.8447"
"47.5200","4.5189","0.8461"
"47.6000","4.5254","0.8471"
"47.6800","4.5322","0.8479"
"47.7600","4.5388","0.8489"
"47.8400","4.5455","0.8499"
"47.9200","4.5521","0.8513"
"48.0000","4.5589","0.8526"
"48.0800","4.5656","0.8534"
"48.1600","4.5722","0.8549"
"48.2400","4.5788","0.8561"
"48.3200","4.5854","0.8572"
"48.4000","4.5921","0.8583"
"48.4800","4.5988","0.8592"
"48.5600","4.6055","0.8606"
"48.6400","4.6122","0.8619"
"48.7200","4.6189","0.8629"
"48.8000","4.6255","0.8641"
"48.8800","4.6321","0.8656"
"48.9600","4.6388","0.8665"
"49.0400","4.6454","0.8680"
"49.1200","4.6521","0.8694"
"49.2000","4.6588","0.8702"
"49.2800","4.6656","0.8712"
"49.3600","4.6723","0.8728"
"49.4400","4.6788","0.8738"
"49.5200","4.6854","0.8749"
"49.6000","4.6921","0.8763"
"49.6800","4.6989","0.8772"
"49.7600","4.7054","0.8783"
"49.8400","4.7122","0.8798"
"49.9200","4.7188","0.8810"
"50.0000","4.7256","0.8822"
"50.0800","4.7321","0.8833"
"50.1600","4.7388","0.8845"
"50.2400","4.7456","0.8856"
"50.3200","4.7523","0.8870"
"50.4000","4.7589","0.8880"
"50.4800","4.7654","0.8892"
"50.5600","4.7723","0.8906"
"50.6400","4.7789","0.8917"
"50.7200","4.7856","0.8930"
"50.8000","4.7921","0.8940"
"50.8800","4.7988","0.8951"
"50.9600","4.8056","0.8963"
"51.0400","4.8121","0.8976"
"51.1200","4.8188","0.8988"
"51.2000","4.8256","0.8998"
"51.2800","4.8324","0.9014"
"51.3600","4.8388","0.9024"
"51.4400","4.8456","0.9038"
"51.5200","4.8521","0.9049"
"51.6000","4.8588","0.9062"
"51.6800","4.8654","0.9071"
"51.7600","4.8721","0.9085"
"51.8400","4.8789","0.9097"
"51.9200","4.8856","0.9109"
"52.0000","4.8923","0.9122"
"52.0800","4.8988","0.9133"
"52.1600","4.9056","0.9144"
"52.2400","4.9122","0.9160"
"52.3200","4.9188","0.9171"
"52.4000","4.9254","0.9181"
"52.4800","4.9322","0.9197"
"52.5600","4.9389","0.9203"
"52.6400","4.9454","0.9218"
"52.7200","4.9522","0.9228"
"52.8000","4.9589","0.9241"
"52.8800","4.9656","0.9256"
"52.9600","4.9722","0.9265"
"53.0400","4.9788","0.9276"
"53.1200","4.9856","0.9290"
"53.2000","4.9921","0.9300"
"53.2800","4.9988","0.9312"
"53.3600","5.0055","0.9322"
"53.4400","5.0122","0.9336"
"53.5200","5.0189","0.9345"
"53.6000","5.0255","0.9361"
"53.6800","5.0321","0.9371"
"53.7600","5.0388","0.9383"
"53.8400","5.0456","0.9394"
"53.9200","5.0521","0.9409"
"54.0000","5.0589","0.9416"
"54.0800","5.0656","0.9433"
"54.1600","5.0722","0.9445"
"54.2400","5.0788","0.9459"
"54.3200","5.0854","0.9468"
"54.4000","5.0922","0.9479"
"54.4800","5.0988","0.9488"
"54.5600","5.1056","0.9501"
"54.6400","5.1121","0.9511"
"54.7200","5.1189","0.9527"
"54.8000","5.1254","0.9536"
"54.8800","5.1321","0.9548"
"54.9600","5.1388","0.9558"
"55.0400","5.1455","0.9570"
"55.1200","5.1521","0.9582"
"55.2000","5.1588","0.9594"
"55.2800","5.1656","0.9607"
"55.3600","5.1722","0.9620"
"55.4400","5.1788","0.9629"
"55.5200","5.1854","0.9637"
"55.6000","5.1921","0.9656"
"55.6800","5.1989","0.9669"
"55.7600","5.2054","0.9675"
"55.8400","5.2122","0.9691"
"55.9200","5.2188","0.9700"
"56.0000","5.2256","0.9712"
"56.0800","5.2321","0.9723"
"56.1600","5.2389","0.9736"
"56.2400","5.2456","0.9749"
"56.3200","5.2522","0.9759"
"56.4000","5.2588","0.9771"
"56.4800","5.2654","0.9778"
"56.5600","5.2723","0.9794"
"56.6400","5.2789","0.9807"
"56.7200","5.2855","0.9814"
"56.8000","5.2922","0.9828"
"56.8800","5.2988","0.9841"
"56.9600","5.3054","0.9850"
"57.0400","5.3121","0.9864"
"57.1200","5.3189","0.9873"
"57.2000","5.3256","0.9889"
"57.2800","5.3323","0.9901"
"57.3600","5.3388","0.9910"
"57.4400","5.3456","0.9922"
"57.5200","5.3521","0.9935"
"57.6000","5.3588","0.9947"
"57.6800","5.3654","0.9958"
"57.7600","5.3721","0.9973"
"57.8400","5.3789","0.9977"
"57.9200","5.3855","0.9991"
"58.0000","5.3922","1.0008"
"58.0800","5.3988","1.0016"
"58.1600","5.4055","1.0030"
"58.2400","5.4122","1.0042"
"58.3200","5.4188","1.0051"
"58.4000","5.4254","1.0063"
"58.4800","5.4321","1.0077"
"58.5600","5.4389","1.0086"
"58.6400","5.4454","1.0099"
"58.7200","5.4522","1.0111"
"58.8000","5.4589","1.0126"
"58.8800","5.4656","1.0132"
"58.9600","5.4722","1.0146"
"59.0400","5.4787","1.0160"
"59.1200","5.4855","1.0169"
"59.2000","5.4922","1.0182"
"59.2800","5.4989","1.0191"
"59.3600","5.5056","1.0202"
"59.4400","5.5123","1.0219"
"59.5200","5.5189","1.0228"
"59.6000","5.5254","1.0239"
"59.6800","5.5321","1.0250"
"59.7600","5.5387","1.0265"
"59.8400","5.5456","1.0273"
"59.9200","5.5521","1.0287"
"60.0000","5.5589","1.0299"
"60.0800","5.5655","1.0313"
"60.1600","5.5721","1.0325"
"60.2400","5.5788","1.0336"
"60.3200","5.5855","1.0348"
"60.4000","5.5922","1.0361"
"60.4800","5.5988","1.0366"
"60.5600","5.6055","1.0379"
"60.6400","5.6121","1.0391"
"60.7200","5.6189","1.0403"
"60.8000","5.6255","1.0412"
"60.8800","5.6322","1.0430"
"60.9600","5.6389","1.0439"
"61.0400","5.6455","1.0448"
"61.1200","5.6522","1.0460"
"61.2000","5.6588","1.0474"
"61.2800","5.6655","1.0483"
"61.3600","5.6722","1.0498"
"61.4400","5.6789","1.0507"
"61.5200","5.6855","1.0520"
"61.6000","5.6921","1.0532"
"61.6800","5.6989","1.0544"
"61.7600","5.7054","1.0552"
"61.8400","5.7121","1.0567"
"61.9200","5.7188","1.0576"
"62.0000","5.7256","1.0589"
"62.0800","5.7322","1.0598"
"62.1600","5.7388","1.0610"
"62.2400","5.7456","1.0621"
"62.3200","5.7521","1.0605"
"62.4000","5.7589","1.0610"
"62.4800","5.7654","1.0624"
"62.5600","5.7723","1.0632"
"62.6400","5.7789","1.0643"
"62.7200","5.7856","1.0654"
"62.8000","5.7921","1.0664"
"62.8800","5.7988","1.0675"
"62.9600","5.8056","1.0687"
"63.0400","5.8121","1.0697"
"63.1200","5.8189","1.0709"
"63.2000","5.8255","1.0715"
"63.2800","5.8323","1.0730"
"63.3600","5.8388","1.0728"
"63.4400","5.8456","1.0738"
"63.5200","5.8522","1.0744"
"63.6000","5.8589","1.0621"
"63.6800","5.8654","1.0626"
"63.7600","5.8721","1.0635"
"63.8400","5.8789","1.0637"
"63.9200","5.8855","1.0646"
"64.0000","5.8922","1.0655"
"64.0800","5.8988","1.0663"
"64.1600","5.9056","1.0674"
"64.2400","5.9121","1.0680"
"64.3200","5.9187","1.0505"
"64.4000","5.9254","1.0505"
"64.4800","5.9321","1.0508"
"64.5600","5.9389","1.0514"
"64.6400","5.9455","1.0519"
"64.7200","5.9523","1.0527"
"64.8000","5.9589","1.0533"
"64.8800","5.9656","1.0540"
"64.9600","5.9721","1.0553"
"65.0400","5.9786","1.0559"
"65.1200","5.9855","1.0570"
"65.2000","5.9922","1.0576"
"65.2800","5.9989","1.0586"
"65.3600","6.0056","1.0596"
"65.4400","6.0123","1.0609"
"65.5200","6.0189","1.0617"
"65.6000","6.0254","1.0628"
"65.6800","6.0322","1.0636"
"65.7600","6.0388","1.0644"
"65.8400","6.0456","1.0659"
"65.9200","6.0521","1.0668"
"66.0000","6.0589","1.0677"
"66.0800","6.0655","1.0684"
"66.1600","6.0722","1.0698"
"66.2400","6.0788","1.0708"
"66.3200","6.0855","1.0717"
"66.4000","6.0921","1.0727"
"66.4800","6.0988","1.0739"
"66.5600","6.1055","1.0749"
"66.6400","6.1121","1.0758"
"66.7200","6.1189","1.0772"
"66.8000","6.1255","1.0782"
"66.8800","6.1322","1.0793"
"66.9600","6.1389","1.0801"
"67.0400","6.1455","1.0813"
"67.1200","6.1521","1.0822"
"67.2000","6.1588","1.0832"
"67.2800","6.1656","1.0845"
"67.3600","6.1722","1.0858"
"67.4400","6.1788","1.0865"
"67.5200","6.1855","1.0873"
"67.6000","6.1921","1.0891"
"67.6800","6.1988","1.0893"
"67.7600","6.2054","1.0906"
"67.8400","6.2122","1.0918"
"67.9200","6.2189","1.0926"
"68.0000","6.2256","1.0937"
"68.0800","6.2322","1.0948"
"68.1600","6.2388","1.0958"
"68.2400","6.2456","1.0967"
"68.3200","6.2521","1.0983"
"68.4000","6.2589","1.0989"
"68.4800","6.2654","1.0997"
"68.5600","6.2723","1.1012"
"68.6400","6.2789","1.1020"
"68.7200","6.2855","1.1032"
"68.8000","6.2921","1.1044"
"68.8800","6.2988","1.1055"
"68.9600","6.3055","1.1062"
"69.0400","6.3121","1.1073"
"69.1200","6.3189","1.1084"
"69.2000","6.3255","1.1092"
"69.2800","6.3323","1.1103"
"69.3600","6.3387","1.1114"
"69.4400","6.3455","1.1126"
"69.5200","6.3522","1.1135"
"69.6000","6.3589","1.1144"
"69.6800","6.3654","1.1154"
"69.7600","6.3721","1.1168"
"69.8400","6.3789","1.1175"
"69.9200","6.3856","1.1185"
"70.0000","6.3923","1.1193"
"70.0800","6.3988","1.1202"
"70.1600","6.4056","1.1214"
"70.2400","6.4122","1.1224"
"70.3200","6.4187","1.1177"
"70.4000","6.4254","1.1182"
"70.4800","6.4322","1.1189"
"70.5600","6.4389","1.1198"
"70.6400","6.4454","1.1206"
"70.7200","6.4522","1.1216"
"70.8000","6.4589","1.1224"
"70.8800","6.4655","1.1231"
"70.9600","6.4721","1.1243"
"71.0400","6.4787","1.1248"
"71.1200","6.4856","1.1261"
"71.2000","6.4922","1.1267"
"71.2800","6.4989","1.1276"
"71.3600","6.5056","1.1288"
"71.4400","6.5123","1.1296"
"71.5200","6.5189","1.1304"
"71.6000","6.5254","1.1316"
"71.6800","6.5322","1.1326"
"71.7600","6.5388","1.1333"
"71.8400","6.5456","1.1341"
"71.9200","6.5521","1.1354"
"72.0000","6.5589","1.1362"
"72.0800","6.5656","1.1377"
"72.1600","6.5723","1.1383"
"72.2400","6.5788","1.1393"
"72.3200","6.5854","1.1404"
"72.4000","6.5922","1.1413"
"72.4800","6.5988","1.1422"
"72.5600","6.6055","1.1430"
"72.6400","6.6121","1.1440"
"72.7200","6.6189","1.1451"
"72.8000","6.6255","1.1460"
"72.8800","6.6321","1.1474"
"72.9600","6.6388","1.1479"
"73.0400","6.6454","1.1489"
"73.1200","6.6521","1.1499"
"73.2000","6.6587","1.1507"
"73.2800","6.6655","1.1518"
"73.3600","6.6722","1.1528"
"73.4400","6.6789","1.1539"
"73.5200","6.6854","1.1548"
"73.6000","6.6921","1.1546"
"73.6800","6.6989","1.1553"
"73.7600","6.7054","1.1564"
"73.8400","6.7121","1.1572"
"73.9200","6.7188","1.1578"
"74.0000","6.7256","1.1590"
"74.0800","6.7321","1.1598"
"74.1600","6.7388","1.1608"
"74.2400","6.7456","1.1618"
"74.3200","6.7522","1.1626"
"74.4000","6.7589","1.1635"
"74.4800","6.7654","1.1642"
"74.5600","6.7723","1.1653"
"74.6400","6.7789","1.1662"
"74.7200","6.7855","1.1670"
"74.8000","6.7921","1.1644"
"74.8800","6.7988","1.1651"
"74.9600","6.8056","1.1660"
"75.0400","6.8121","1.1670"
"75.1200","6.8189","1.1676"
"75.2000","6.8255","1.1684"
"75.2800","6.8323","1.1694"
"75.3600","6.8388","1.1701"
"75.4400","6.8455","1.1712"
"75.5200","6.8522","1.1720"
"75.6000","6.8588","1.1723"
"75.6800","6.8654","1.1647"
"75.7600","6.8721","1.1652"
"75.8400","6.8789","1.1660"
"75.9200","6.8856","1.1663"
"76.0000","6.8923","1.1672"
"76.0800","6.8988","1.1681"
"76.1600","6.9056","1.1687"
"76.2400","6.9121","1.1694"
"76.3200","6.9187","1.1704"
"76.4000","6.9254","1.1712"
"76.4800","6.9321","1.1725"
"76.5600","6.9389","1.1732"
"76.6400","6.9456","1.1739"
"76.7200","6.9522","1.1747"
"76.8000","6.9589","1.1756"
"76.8800","6.9655","1.1758"
"76.9600","6.9721","1.1767"
"77.0400","6.9787","1.1774"
"77.1200","6.9856","1.1782"
"77.2000","6.9922","1.1793"
"77.2800","6.9989","1.1801"
"77.3600","7.0055","1.1812"
"77.4400","7.0123","1.1822"
"77.5200","7.0189","1.1829"
"77.6000","7.0254","1.1839"
"77.6800","7.0321","1.1848"
"77.7600","7.0388","1.1732"
"77.8400","7.0455","1.1734"
"77.9200","7.0521","1.1739"
"78.0000","7.0589","1.1744"
"78.0800","7.0656","1.1749"
"78.1600","7.0722","1.1758"
"78.2400","7.0788","1.1762"
"78.3200","7.0855","1.1774"
"78.4000","7.0922","1.1784"
"78.4800","7.0988","1.1788"
"78.5600","7.1055","1.1798"
"78.6400","7.1122","1.1808"
"78.7200","7.1189","1.1819"
"78.8000","7.1255","1.1826"
"78.8800","7.1321","1.1833"
"78.9600","7.1388","1.1840"
"79.0400","7.1454","1.1825"
"79.1200","7.1522","1.1836"
"79.2000","7.1588","1.1843"
"79.2800","7.1655","1.1850"
"79.3600","7.1722","1.1861"
"79.4400","7.1788","1.1867"
"79.5200","7.1854","1.1880"
"79.6000","7.1921","1.1886"
"79.6800","7.1989","1.1896"
"79.7600","7.2054","1.1903"
"79.8400","7.2122","1.1914"
"79.9200","7.2189","1.1921"
"80.0000","7.2256","1.1932"
"80.0800","7.2322","1.1938"
"80.1600","7.2388","1.1948"
"80.2400","7.2456","1.1957"
"80.3200","7.2521","1.1964"
"80.4000","7.2589","1.1975"
"80.4800","7.2654","1.1987"
"80.5600","7.2723","1.1996"
"80.6400","7.2789","1.1965"
"80.7200","7.2856","1.1967"
"80.8000","7.2921","1.1970"
"80.8800","7.2988","1.1978"
"80.9600","7.3055","1.1980"
"81.0400","7.3121","1.1990"
"81.1200","7.3188","1.1997"
"81.2000","7.3255","1.2004"
"81.2800","7.3323","1.2013"
"81.3600","7.3388","1.2017"
"81.4400","7.3455","1.2028"
"81.5200","7.3522","1.2033"
"81.6000","7.3588","1.2037"
"81.6800","7.3654","1.2047"
"81.7600","7.3721","1.1916"
"81.8400","7.3789","1.1916"
"81.9200","7.3856","1.1920"
"82.0000","7.3922","1.1921"
"82.0800","7.3988","1.1925"
"82.1600","7.4055","1.1918"
"82.2400","7.4122","1.1921"
"82.3200","7.4187","1.1918"
"82.4000","7.4254","1.1923"
"82.4800","7.4321","1.1928"
"82.5600","7.4389","1.1939"
"82.6400","7.4455","1.1940"
"82.7200","7.4523","1.1954"
"82.8000","7.4589","1.1960"
"82.8800","7.4655","1.1969"
"82.9600","7.4722","1.1974"
"83.0400","7.4787","1.1981"
"83.1200","7.4856","1.1987"
"83.2000","7.4922","1.1999"
"83.2800","7.4989","1.2006"
"83.3600","7.5056","1.2014"
"83.4400","7.5123","1.2023"
"83.5200","7.5189","1.2030"
"83.6000","7.5254","1.2039"
"83.6800","7.5322","1.2050"
"83.7600","7.5388","1.2056"
"83.8400","7.5456","1.2062"
"83.9200","7.5521","1.2076"
"84.0000","7.5589","1.2084"
"84.0800","7.5656","1.2091"
"84.1600","7.5722","1.2101"
"84.2400","7.5787","1.2110"
"84.3200","7.5854","1.2118"
"84.4000","7.5921","1.2126"
"84.4800","7.5988","1.2135"
"84.5600","7.6055","1.2142"
"84.6400","7.6121","1.2154"
"84.7200","7.6189","1.2164"
"84.8000","7.6255","1.2168"
"84.8800","7.6321","1.2181"
"84.9600","7.6388","1.2187"
"85.0400","7.6455","1.2197"
"85.1200","7.6522","1.2203"
"85.2000","7.6588","1.2214"
"85.2800","7.6655","1.2224"
"85.3600","7.6722","1.2227"
"85.4400","7.6788","1.2219"
"85.5200","7.6855","1.2226"
"85.6000","7.6922","1.2226"
"85.6800","7.6989","1.2230"
"85.7600","7.7054","1.2222"
"85.8400","7.7122","1.2230"
"85.9200","7.7189","1.2230"
"86.0000","7.7256","1.2237"
"86.0800","7.7322","1.2242"
"86.1600","7.7388","1.2250"
"86.2400","7.7456","1.2258"
"86.3200","7.7522","1.2264"
"86.4000","7.7589","1.2269"
"86.4800","7.7654","1.2281"
"86.5600","7.7723","1.2285"
"86.6400","7.7789","1.2293"
"86.7200","7.7855","1.2300"
"86.8000","7.7921","1.2307"
"86.8800","7.7989","1.2312"
"86.9600","7.8055","1.2323"
"87.0400","7.8121","1.2330"
"87.1200","7.8189","1.2338"
"87.2000","7.8255","1.2348"
"87.2800","7.8323","1.2352"
"87.3600","7.8388","1.2363"
"87.4400","7.8456","1.2369"
"87.5200","7.8522","1.2378"
"87.6000","7.8588","1.2386"
"87.6800","7.8654","1.2390"
"87.7600","7.8721","1.2375"
"87.8400","7.8789","1.2282"
"87.9200","7.8856","1.2237"
"88.0000","7.8922","1.2198"
"88.0800","7.8988","1.2040"
"88.1600","7.9056","1.2030"
"88.2400","7.9121","1.2024"
"88.3200","7.9188","1.2019"
"88.4000","7.9254","1.2013"
"88.4800","7.9321","1.2011"
"88.5600","7.9389","1.2017"
"88.6400","7.9455","1.2016"
"88.7200","7.9523","1.2023"
"88.8000","7.9589","1.2023"
"88.8800","7.9654","1.2027"
"88.9600","7.9721","1.2030"
"89.0400","7.9787","1.2030"
"89.1200","7.9856","1.1978"
"89.2000","7.9922","1.1896"
"89.2800","7.9989","1.1864"
"89.3600","8.0056","1.1844"
"89.4400","8.0122","1.1829"
"89.5200","8.0189","1.1809"
"89.6000","8.0254","1.1797"
"89.6800","8.0321","1.1783"
"89.7600","8.0387","1.1774"
"89.8400","8.0456","1.1770"
"89.9200","8.0521","1.1765"
"90.0000","8.0589","1.1756"
"90.0800","8.0656","1.1753"
"90.1600","8.0722","1.1753"
"90.2400","8.0788","1.1750"
"90.3200","8.0854","1.1752"
"90.4000","8.0922","1.1754"
"90.4800","8.0988","1.1754"
"90.5600","8.1055","1.1751"
"90.6400","8.1121","1.1754"
"90.7200","8.1189","1.1754"
"90.8000","8.1254","1.1754"
"90.8800","8.1322","1.1760"
"90.9600","8.1389","1.1761"
"91.0400","8.1455","1.1766"
"91.1200","8.1522","1.1767"
"91.2000","8.1588","1.1771"
"91.2800","8.1655","1.1771"
"91.3600","8.1722","1.1775"
"91.4400","8.1788","1.1778"
"91.5200","8.1855","1.1784"
"91.6000","8.1921","1.1792"
"91.6800","8.1989","1.1791"
"91.7600","8.2054","1.1795"
"91.8400","8.2122","1.1802"
"91.9200","8.2189","1.1803"
"92.0000","8.2256","1.1811"
"92.0800","8.2321","1.1817"
"92.1600","8.2388","1.1818"
"92.2400","8.2456","1.1824"
"92.3200","8.2522","1.1828"
"92.4000","8.2589","1.1832"
"92.4800","8.2654","1.1835"
"92.5600","8.2723","1.1842"
"92.6400","8.2789","1.1847"
"92.7200","8.2856","1.1849"
"92.8000","8.2921","1.1857"
"92.8800","8.2988","1.1864"
"92.9600","8.3056","1.1866"
"93.0400","8.3121","1.1871"
"93.1200","8.3188","1.1879"
"93.2000","8.3256","1.1885"
"93.2800","8.3324","1.1887"
"93.3600","8.3388","1.1891"
"93.4400","8.3455","1.1899"
"93.5200","8.3522","1.1906"
"93.6000","8.3588","1.1907"
"93.6800","8.3654","1.1913"
"93.7600","8.3721","1.1923"
"93.8400","8.3789","1.1925"
"93.9200","8.3856","1.1931"
"94.0000","8.3922","1.1939"
"94.0800","8.3988","1.1943"
"94.1600","8.4056","1.1950"
"94.2400","8.4122","1.1955"
"94.3200","8.4187","1.1957"
"94.4000","8.4254","1.1966"
"94.4800","8.4321","1.1969"
"94.5600","8.4389","1.1972"
"94.6400","8.4455","1.1982"
"94.7200","8.4523","1.1988"
"94.8000","8.4589","1.1990"
"94.8800","8.4655","1.1995"
"94.9600","8.4721","1.2003"
"95.0400","8.4787","1.2005"
"95.1200","8.4856","1.2012"
"95.2000","8.4922","1.2017"
"95.2800","8.4989","1.2023"
"95.3600","8.5055","1.2028"
"95.4400","8.5123","1.2036"
"95.5200","8.5189","1.2037"
"95.6000","8.5254","1.2046"
"95.6800","8.5322","1.2051"
"95.7600","8.5387","1.2054"
"95.8400","8.5455","1.2055"
"95.9200","8.5520","1.2025"
"96.0000","8.5589","1.1977"
"96.0800","8.5656","1.1956"
"96.1600","8.5723","1.1942"
"96.2400","8.5789","1.1931"
"96.3200","8.5855","1.1925"
"96.4000","8.5922","1.1920"
"96.4800","8.5988","1.1919"
"96.5600","8.6055","1.1918"
"96.6400","8.6121","1.1913"
"96.7200","8.6189","1.1914"
"96.8000","8.6255","1.1913"
"96.8800","8.6322","1.1913"
"96.9600","8.6388","1.1912"
"97.0400","8.6455","1.1896"
"97.1200","8.6522","1.1889"
"97.2000","8.6587","1.1883"
"97.2800","8.6656","1.1879"
"97.3600","8.6723","1.1880"
"97.4400","8.6789","1.1863"
"97.5200","8.6855","1.1837"
"97.6000","8.6921","1.1827"
"97.6800","8.6989","1.1816"
"97.7600","8.7054","1.1802"
"97.8400","8.7122","1.1787"
"97.9200","8.7189","1.1782"
"98.0000","8.7256","1.1774"
"98.0800","8.7322","1.1765"
"98.1600","8.7388","1.1763"
"98.2400","8.7456","1.1759"
"98.3200","8.7522","1.1755"
"98.4000","8.7589","1.1750"
"98.4800","8.7654","1.1750"
"98.5600","8.7723","1.1749"
"98.6400","8.7789","1.1747"
"98.7200","8.7856","1.1743"
"98.8000","8.7921","1.1744"
"98.8800","8.7988","1.1745"
"98.9600","8.8056","1.1736"
"99.0400","8.8121","1.1702"
"99.1200","8.8189","1.1699"
"99.2000","8.8256","1.1700"
"99.2800","8.8323","1.1697"
"99.3600","8.8388","1.1701"
"99.4400","8.8455","1.1696"
"99.5200","8.8522","1.1698"
"99.6000","8.8589","1.1704"
"99.6800","8.8655","1.1704"
"99.7600","8.8721","1.1708"
"99.8400","8.8789","1.1708"
"99.9200","8.8855","1.1712"
"100.0000","8.8922","1.1713"
"100.0800","8.8988","1.1717"
"100.1600","8.9055","1.1717"
"100.2400","8.9122","1.1723"
"100.3200","8.9187","1.1727"
"100.4000","8.9254","1.1730"
"100.4800","8.9322","1.1731"
"100.5600","8.9389","1.1734"
"100.6400","8.9455","1.1739"
"100.7200","8.9522","1.1732"
"100.8000","8.9589","1.1730"
"100.8800","8.9655","1.1731"
"100.9600","8.9721","1.1735"
"101.0400","8.9787","1.1738"
"101.1200","8.9856","1.1741"
"101.2000","8.9922","1.1743"
"101.2800","8.9989","1.1744"
"101.3600","9.0055","1.1732"
"101.4400","9.0122","1.1724"
"101.5200","9.0189","1.1726"
"101.6000","9.0254","1.1725"
"101.6800","9.0322","1.1723"
"101.7600","9.0388","1.1721"
"101.8400","9.0455","1.1722"
"101.9200","9.0521","1.1726"
"102.0000","9.0589","1.1723"
"102.0800","9.0656","1.1723"
"102.1600","9.0723","1.1731"
"102.2400","9.0788","1.1729"
"102.3200","9.0854","1.1733"
"102.4000","9.0922","1.1734"
"102.4800","9.0988","1.1736"
"102.5600","9.1055","1.1743"
"102.6400","9.1122","1.1744"
"102.7200","9.1189","1.1748"
"102.8000","9.1255","1.1748"
"102.8800","9.1322","1.1753"
"102.9600","9.1388","1.1756"
"103.0400","9.1454","1.1760"
"103.1200","9.1521","1.1764"
"103.2000","9.1587","1.1767"
"103.2800","9.1656","1.1773"
"103.3600","9.1722","1.1779"
"103.4400","9.1789","1.1780"
"103.5200","9.1854","1.1784"
"103.6000","9.1921","1.1788"
"103.6800","9.1989","1.1790"
"103.7600","9.2054","1.1795"
"103.8400","9.2122","1.1801"
"103.9200","9.2189","1.1805"
"104.0000","9.2256","1.1812"
"104.0800","9.2321","1.1816"
"104.1600","9.2387","1.1817"
"104.2400","9.2456","1.1826"
"104.3200","9.2522","1.1830"
"104.4000","9.2589","1.1834"
"104.4800","9.2654","1.1836"
"104.5600","9.2723","1.1844"
"104.6400","9.2788","1.1847"
"104.7200","9.2855","1.1853"
"104.8000","9.2921","1.1857"
"104.8800","9.2989","1.1863"
"104.9600","9.3056","1.1857"
"105.0400","9.3121","1.1837"
"105.1200","9.3188","1.1781"
"105.2000","9.3255","1.1753"
"105.2800","9.3323","1.1730"
"105.3600","9.3388","1.1713"
"105.4400","9.3456","1.1696"
"105.5200","9.3522","1.1690"
"105.6000","9.3588","1.1678"
"105.6800","9.3654","1.1672"
"105.7600","9.3721","1.1668"
"105.8400","9.3789","1.1657"
"105.9200","9.3856","1.1648"
"106.0000","9.3922","1.1645"
"106.0800","9.3988","1.1634"
"106.1600","9.4055","1.1633"
"106.2400","9.4122","1.1628"
"106.3200","9.4187","1.1621"
"106.4000","9.4254","1.1585"
"106.4800","9.4322","1.1557"
"106.5600","9.4390","1.1546"
"106.6400","9.4455","1.1530"
"106.7200","9.4522","1.1516"
"106.8000","9.4589","1.1501"
"106.8800","9.4655","1.1486"
"106.9600","9.4721","1.1473"
"107.0400","9.4787","1.1457"
"107.1200","9.4856","1.1435"
"107.2000","9.4922","1.1419"
"107.2800","9.4989","1.1400"
"107.3600","9.5055","1.1359"
"107.4400","9.5123","1.1353"
"107.5200","9.5189","1.1342"
"107.6000","9.5254","1.1338"
"107.6800","9.5322","1.1326"
"107.7600","9.5388","1.1318"
"107.8400","9.5455","1.1294"
"107.9200","9.5521","1.1284"
"108.0000","9.5589","1.1279"
"108.0800","9.5656","1.1273"
"108.1600","9.5723","1.1270"
"108.2400","9.5788","1.1264"
"108.3200","9.5854","1.1261"
"108.4000","9.5922","1.1250"
"108.4800","9.5988","1.1249"
"108.5600","9.6055","1.1241"
"108.6400","9.6122","1.1241"
"108.7200","9.6189","1.1239"
"108.8000","9.6255","1.1233"
"108.8800","9.6322","1.1210"
"108.9600","9.6388","1.1181"
"109.0400","9.6455","1.1100"
"109.1200","9.6522","1.1049"
"109.2000","9.6588","1.1027"
"109.2800","9.6656","1.0920"
"109.3600","9.6723","1.0709"
"109.4400","9.6788","1.0631"
"109.5200","9.6855","1.0618"
"109.6000","9.6921","1.0611"
"109.6800","9.6989","1.0605"
"109.7600","9.7054","1.0583"
"109.8400","9.7122","1.0543"
"109.9200","9.7189","1.0534"
"110.0000","9.7256","1.0528"
"110.0800","9.7322","1.0513"
"110.1600","9.7388","1.0503"
"110.2400","9.7456","1.0479"
"110.3200","9.7522","1.0450"
"110.4000","9.7589","1.0437"
"110.4800","9.7654","1.0422"
"110.5600","9.7723","1.0397"
"110.6400","9.7789","1.0018"
"110.7200","9.7856","0.8636"
"110.7820","9.7909","0.5778"