File: flexural/ES100_Trevor_Flexural_Data_1_1.csv
Specimen text inputs : Specimen text input  1,,""

Results Table 1
,Specimen text input  1
"1","b0_f1"

Results Table 2

Time,Displacement,Force
(s),(mm),(kN)
"0.0000","7.4539","0.0203"
"0.1000","7.4631","0.0244"
"0.2000","7.4700","0.0255"
"0.3000","7.4779","0.0275"
"0.4000","7.4861","0.0290"
"0.5000","7.4944","0.0306"
"0.6000","7.5027","0.0328"
"0.7000","7.5112","0.0346"
"0.8000","7.5194","0.0368"
"0.9000","7.5278","0.0383"
"1.0000","7.5361","0.0405"
"1.1000","7.5444","0.0425"
"1.2000","7.5529","0.0443"
"1.3000","7.5612","0.0463"
"1.4000","7.5696","0.0481"
"1.5000","7.5779","0.0501"
"1.6000","7.5862","0.0523"
"1.7000","7.5946","0.0537"
"1.8000","7.6027","0.0555"
"1.9000","7.6112","0.0580"
"2.0000","7.6195","0.0600"
"2.1000","7.6277","0.0615"
"2.2000","7.6362","0.0637"
"2.3000","7.6445","0.0665"
"2.4000","7.6528","0.0677"
"2.5000","7.6611","0.0696"
"2.6000","7.6694","0.0718"
"2.7000","7.6778","0.0737"
"2.8000","7.6861","0.0758"
"2.9000","7.6946","0.0776"
"3.0000","7.7029","0.0799"
"3.1000","7.7111","0.0819"
"3.2000","7.7196","0.0838"
"3.3000","7.7279","0.0861"
"3.4000","7.7361","0.0881"
"3.5000","7.7444","0.0897"
"3.6000","7.7527","0.0918"
"3.7000","7.7611","0.0940"
"3.8000","7.7694","0.0959"
"3.9000","7.7778","0.0976"
"4.0000","7.7862","0.0998"
"4.1000","7.7944","0.1021"
"4.2000","7.8029","0.1039"
"4.3000","7.8112","0.1059"
"4.4000","7.8195","0.1080"
"4.5000","7.8279","0.1103"
"4.6000","7.8363","0.1122"
"4.7000","7.8445","0.1142"
"4.8000","7.8528","0.1164"
"4.9000","7.8612","0.1183"
"5.0000","7.8695","0.1199"
"5.1000","7.8777","0.1226"
"5.2000","7.8862","0.1241"
"5.3000","7.8944","0.1263"
"5.4000","7.9028","0.1282"
"5.5000","7.9112","0.1302"
"5.6000","7.9194","0.1323"
"5.7000","7.9278","0.1342"
"5.8000","7.9361","0.1360"
"5.9000","7.9446","0.1381"
"6.0000","7.9529","0.1401"
"6.1000","7.9611","0.1421"
"6.2000","7.9695","0.1441"
"6.3000","7.9778","0.1462"
"6.4000","7.9861","0.1481"
"6.5000","7.9945","0.1503"
"6.6000","8.0028","0.1519"
"6.7000","8.0111","0.1541"
"6.8000","8.0194","0.1561"
"6.9000","8.0278","0.1581"
"7.0000","8.0362","0.1602"
"7.1000","8.0444","0.1624"
"7.2000","8.0529","0.1642"
"7.3000","8.0613","0.1666"
"7.4000","8.0695","0.1684"
"7.5000","8.0779","0.1704"
"7.6000","8.0863","0.1725"
"7.7000","8.0946","0.1747"
"7.8000","8.1028","0.1763"
"7.9000","8.1112","0.1783"
"8.0000","8.1195","0.1805"
"8.1000","8.1277","0.1824"
"8.2000","8.1362","0.1842"
"8.3000","8.1445","0.1867"
"8.4000","8.1528","0.1885"
"8.5000","8.1611","0.1903"
"8.6000","8.1694","0.1923"
"8.7000","8.1778","0.1942"
"8.8000","8.1861","0.1961"
"8.9000","8.1946","0.1986"
"9.0000","8.2029","0.2005"
"9.1000","8.2111","0.2025"
"9.2000","8.2196","0.2045"
"9.3000","8.2278","0.2065"
"9.4000","8.2361","0.2085"
"9.5000","8.2445","0.2106"
"9.6000","8.2527","0.2122"
"9.7000","8.2611","0.2144"
"9.8000","8.2694","0.2164"
"9.9000","8.2778","0.2181"
"10.0000","8.2862","0.2205"
"10.1000","8.2943","0.2223"
"10.2000","8.3029","0.2241"
"10.3000","8.3113","0.2263"
"10.4000","8.3195","0.2282"
"10.5000","8.3279","0.2305"
"10.6000","8.3362","0.2324"
"10.7000","8.3445","0.2343"
"10.8000","8.3529","0.2367"
"10.9000","8.3612","0.2380"
"11.0000","8.3695","0.2399"
"11.1000","8.3777","0.2420"
"11.2000","8.3863","0.2443"
"11.3000","8.3945","0.2460"
"11.4000","8.4028","0.2480"
"11.5000","8.4111","0.2501"
"11.6000","8.4194","0.2517"
"11.7000","8.4278","0.2539"
"11.8000","8.4361","0.2555"
"11.9000","8.4446","0.2579"
"12.0000","8.4529","0.2597"
"12.1000","8.4611","0.2617"
"12.2000","8.4696","0.2640"
"12.3000","8.4778","0.2654"
"12.4000","8.4861","0.2676"
"12.5000","8.4945","0.2697"
"12.6000","8.5028","0.2717"
"12.7000","8.5111","0.2739"
"12.8000","8.5194","0.2757"
"12.9000","8.5279","0.2779"
"13.0000","8.5362","0.2799"
"13.1000","8.5444","0.2818"
"13.2000","8.5529","0.2836"
"13.3000","8.5612","0.2857"
"13.4000","8.5695","0.2877"
"13.5000","8.5779","0.2899"
"13.6000","8.5862","0.2918"
"13.7000","8.5946","0.2934"
"13.8000","8.6027","0.2958"
"13.9000","8.6112","0.2977"
"14.0000","8.6195","0.2997"
"14.1000","8.6278","0.3018"
"14.2000","8.6362","0.3035"
"14.3000","8.6444","0.3053"
"14.4000","8.6528","0.3073"
"14.5000","8.6612","0.3093"
"14.6000","8.6694","0.3114"
"14.7000","8.6778","0.3131"
"14.8000","8.6861","0.3151"
"14.9000","8.6946","0.3172"
"15.0000","8.7029","0.3192"
"15.1000","8.7111","0.3212"
"15.2000","8.7195","0.3230"
"15.3000","8.7278","0.3249"
"15.4000","8.7361","0.3269"
"15.5000","8.7444","0.3289"
"15.6000","8.7528","0.3309"
"15.7000","8.7611","0.3323"
"15.8000","8.7694","0.3350"
"15.9000","8.7778","0.3371"
"16.0000","8.7862","0.3387"
"16.1000","8.7944","0.3405"
"16.2000","8.8029","0.3421"
"16.3000","8.8113","0.3443"
"16.4000","8.8196","0.3462"
"16.5000","8.8279","0.3478"
"16.6000","8.8362","0.3503"
"16.7000","8.8446","0.3517"
"16.8000","8.8528","0.3536"
"16.9000","8.8612","0.3557"
"17.0000","8.8694","0.3576"
"17.1000","8.8777","0.3595"
"17.2000","8.8863","0.3613"
"17.3000","8.8945","0.3631"
"17.4000","8.9027","0.3652"
"17.5000","8.9111","0.3675"
"17.6000","8.9194","0.3691"
"17.7000","8.9278","0.3715"
"17.8000","8.9361","0.3727"
"17.9000","8.9446","0.3750"
"18.0000","8.9529","0.3771"
"18.1000","8.9611","0.3790"
"18.2000","8.9696","0.3808"
"18.3000","8.9778","0.3828"
"18.4000","8.9861","0.3846"
"18.5000","8.9945","0.3864"
"18.6000","9.0028","0.3886"
"18.7000","9.0111","0.3905"
"18.8000","9.0194","0.3926"
"18.9000","9.0279","0.3942"
"19.0000","9.0361","0.3964"
"19.1000","9.0443","0.3985"
"19.2000","9.0529","0.4002"
"19.3000","9.0613","0.4022"
"19.4000","9.0695","0.4041"
"19.5000","9.0779","0.4063"
"19.6000","9.0863","0.4080"
"19.7000","9.0945","0.4099"
"19.8000","9.1028","0.4121"
"19.9000","9.1112","0.4138"
"20.0000","9.1195","0.4159"
"20.1000","9.1277","0.4177"
"20.2000","9.1362","0.4197"
"20.3000","9.1444","0.4217"
"20.4000","9.1528","0.4232"
"20.5000","9.1612","0.4257"
"20.6000","9.1694","0.4276"
"20.7000","9.1778","0.4292"
"20.8000","9.1861","0.4308"
"20.9000","9.1946","0.4329"
"21.0000","9.2029","0.4348"
"21.1000","9.2111","0.4367"
"21.2000","9.2196","0.4385"
"21.3000","9.2278","0.4403"
"21.4000","9.2361","0.4426"
"21.5000","9.2445","0.4444"
"21.6000","9.2528","0.4463"
"21.7000","9.2611","0.4482"
"21.8000","9.2694","0.4499"
"21.9000","9.2778","0.4519"
"22.0000","9.2861","0.4535"
"22.1000","9.2943","0.4554"
"22.2000","9.3029","0.4573"
"22.3000","9.3113","0.4590"
"22.4000","9.3196","0.4611"
"22.5000","9.3279","0.4633"
"22.6000","9.3362","0.4648"
"22.7000","9.3446","0.4666"
"22.8000","9.3529","0.4685"
"22.9000","9.3611","0.4701"
"23.0000","9.3695","0.4722"
"23.1000","9.3777","0.4741"
"23.2000","9.3863","0.4758"
"23.3000","9.3945","0.4779"
"23.4000","9.4028","0.4798"
"23.5000","9.4111","0.4815"
"23.6000","9.4194","0.4836"
"23.7000","9.4279","0.4855"
"23.8000","9.4361","0.4874"
"23.9000","9.4446","0.4891"
"24.0000","9.4529","0.4915"
"24.1000","9.4611","0.4932"
"24.2000","9.4696","0.4953"
"24.3000","9.4778","0.4974"
"24.4000","9.4861","0.4992"
"24.5000","9.4944","0.5006"
"24.6000","9.5028","0.5028"
"24.7000","9.5112","0.5046"
"24.8000","9.5194","0.5066"
"24.9000","9.5278","0.5084"
"25.0000","9.5361","0.5102"
"25.1000","9.5443","0.5122"
"25.2000","9.5529","0.5141"
"25.3000","9.5612","0.5160"
"25.4000","9.5695","0.5178"
"25.5000","9.5779","0.5197"
"25.6000","9.5862","0.5217"
"25.7000","9.5945","0.5233"
"25.8000","9.6028","0.5253"
"25.9000","9.6112","0.5268"
"26.0000","9.6195","0.5285"
"26.1000","9.6277","0.5309"
"26.2000","9.6362","0.5326"
"26.3000","9.6445","0.5349"
"26.4000","9.6528","0.5364"
"26.5000","9.6612","0.5384"
"26.6000","9.6694","0.5402"
"26.7000","9.6777","0.5421"
"26.8000","9.6861","0.5438"
"26.9000","9.6946","0.5457"
"27.0000","9.7029","0.5474"
"27.1000","9.7111","0.5491"
"27.2000","9.7195","0.5511"
"27.3000","9.7278","0.5532"
"27.4000","9.7361","0.5547"
"27.5000","9.7445","0.5568"
"27.6000","9.7528","0.5583"
"27.7000","9.7611","0.5606"
"27.8000","9.7694","0.5621"
"27.9000","9.7778","0.5636"
"28.0000","9.7861","0.5660"
"28.1000","9.7943","0.5677"
"28.2000","9.8029","0.5694"
"28.3000","9.8113","0.5712"
"28.4000","9.8195","0.5725"
"28.5000","9.8279","0.5751"
"28.6000","9.8362","0.5765"
"28.7000","9.8445","0.5784"
"28.8000","9.8527","0.5800"
"28.9000","9.8612","0.5820"
"29.0000","9.8695","0.5836"
"29.1000","9.8777","0.5854"
"29.2000","9.8862","0.5876"
"29.3000","9.8944","0.5893"
"29.4000","9.9028","0.5912"
"29.5000","9.9112","0.5931"
"29.6000","9.9194","0.5949"
"29.7000","9.9278","0.5965"
"29.8000","9.9361","0.5985"
"29.9000","9.9446","0.6006"
"30.0000","9.9529","0.6021"
"30.1000","9.9611","0.6040"
"30.2000","9.9696","0.6060"
"30.3000","9.9779","0.6074"
"30.4000","9.9861","0.6097"
"30.5000","9.9945","0.6117"
"30.6000","10.0028","0.6135"
"30.7000","10.0111","0.6150"
"30.8000","10.0194","0.6174"
"30.9000","10.0278","0.6185"
"31.0000","10.0362","0.6208"
"31.1000","10.0443","0.6225"
"31.2000","10.0529","0.6241"
"31.3000","10.0612","0.6262"
"31.4000","10.0695","0.6278"
"31.5000","10.0779","0.6295"
"31.6000","10.0862","0.6318"
"31.7000","10.0946","0.6333"
"31.8000","10.1028","0.6347"
"31.9000","10.1112","0.6366"
"32.0000","10.1195","0.6388"
"32.1000","10.1277","0.6406"
"32.2000","10.1363","0.6419"
"32.3000","10.1445","0.6439"
"32.4000","10.1528","0.6457"
"32.5000","10.1611","0.6477"
"32.6000","10.1694","0.6495"
"32.7000","10.1778","0.6512"
"32.8000","10.1862","0.6529"
"32.9000","10.1946","0.6549"
"33.0000","10.2029","0.6562"
"33.1000","10.2111","0.6585"
"33.2000","10.2196","0.6603"
"33.3000","10.2279","0.6621"
"33.4000","10.2361","0.6641"
"33.5000","10.2445","0.6659"
"33.6000","10.2528","0.6672"
"33.7000","10.2611","0.6693"
"33.8000","10.2694","0.6710"
"33.9000","10.2778","0.6726"
"34.0000","10.2861","0.6747"
"34.1000","10.2943","0.6760"
"34.2000","10.3029","0.6779"
"34.3000","10.3113","0.6797"
"34.4000","10.3196","0.6816"
"34.5000","10.3279","0.6826"
"34.6000","10.3363","0.6850"
"34.7000","10.3445","0.6868"
"34.8000","10.3528","0.6888"
"34.9000","10.3612","0.6900"
"35.0000","10.3695","0.6918"
"35.1000","10.3778","0.6935"
"35.2000","10.3862","0.6953"
"35.3000","10.3944","0.6975"
"35.4000","10.4028","0.6990"
"35.5000","10.4112","0.7008"
"35.6000","10.4194","0.7028"
"35.7000","10.4278","0.7045"
"35.8000","10.4361","0.7062"
"35.9000","10.4446","0.7078"
"36.0000","10.4529","0.7096"
"36.1000","10.4611","0.7118"
"36.2000","10.4696","0.7135"
"36.3000","10.4778","0.7147"
"36.4000","10.4861","0.7170"
"36.5000","10.4944","0.7189"
"36.6000","10.5028","0.7203"
"36.7000","10.5112","0.7223"
"36.8000","10.5194","0.7240"
"36.9000","10.5278","0.7258"
"37.0000","10.5361","0.7278"
"37.1000","10.5444","0.7297"
"37.2000","10.5529","0.7307"
"37.3000","10.5612","0.7323"
"37.4000","10.5695","0.7344"
"37.5000","10.5779","0.7359"
"37.6000","10.5862","0.7378"
"37.7000","10.5945","0.7397"
"37.8000","10.6028","0.7413"
"37.9000","10.6111","0.7429"
"38.0000","10.6195","0.7450"
"38.1000","10.6277","0.7466"
"38.2000","10.6363","0.7487"
"38.3000","10.6445","0.7503"
"38.4000","10.6528","0.7521"
"38.5000","10.6611","0.7536"
"38.6000","10.6694","0.7555"
"38.7000","10.6778","0.7571"
"38.8000","10.6861","0.7588"
"38.9000","10.6946","0.7609"
"39.0000","10.7029","0.7627"
"39.1000","10.7111","0.7640"
"39.2000","10.7196","0.7658"
"39.3000","10.7278","0.7675"
"39.4000","10.7361","0.7692"
"39.5000","10.7444","0.7711"
"39.6000","10.7528","0.7731"
"39.7000","10.7611","0.7746"
"39.8000","10.7694","0.7762"
"39.9000","10.7778","0.7781"
"40.0000","10.7861","0.7798"
"40.1000","10.7943","0.7816"
"40.2000","10.8029","0.7831"
"40.3000","10.8113","0.7848"
"40.4000","10.8195","0.7867"
"40.5000","10.8279","0.7883"
"40.6000","10.8362","0.7897"
"40.7000","10.8446","0.7920"
"40.8000","10.8528","0.7934"
"40.9000","10.8612","0.7950"
"41.0000","10.8695","0.7968"
"41.1000","10.8776","0.7989"
"41.2000","10.8862","0.8006"
"41.3000","10.8945","0.8024"
"41.4000","10.9028","0.8041"
"41.5000","10.9112","0.8057"
"41.6000","10.9194","0.8074"
"41.7000","10.9278","0.8090"
"41.8000","10.9361","0.8109"
"41.9000","10.9446","0.8124"
"42.0000","10.9529","0.8143"
"42.1000","10.9611","0.8161"
"42.2000","10.9696","0.8177"
"42.3000","10.9779","0.8197"
"42.4000","10.9862","0.8216"
"42.5000","10.9945","0.8232"
"42.6000","11.0027","0.8251"
"42.7000","11.0111","0.8268"
"42.8000","11.0194","0.8282"
"42.9000","11.0278","0.8298"
"43.0000","11.0362","0.8317"
"43.1000","11.0444","0.8335"
"43.2000","11.0529","0.8350"
"43.3000","11.0612","0.8371"
"43.4000","11.0695","0.8388"
"43.5000","11.0779","0.8403"
"43.6000","11.0862","0.8416"
"43.7000","11.0946","0.8437"
"43.8000","11.1028","0.8458"
"43.9000","11.1112","0.8472"
"44.0000","11.1195","0.8489"
"44.1000","11.1277","0.8508"
"44.2000","11.1363","0.8524"
"44.3000","11.1444","0.8539"
"44.4000","11.1528","0.8554"
"44.5000","11.1612","0.8576"
"44.6000","11.1694","0.8589"
"44.7000","11.1778","0.8606"
"44.8000","11.1861","0.8625"
"44.9000","11.1946","0.8642"
"45.0000","11.2029","0.8659"
"45.1000","11.2111","0.8679"
"45.2000","11.2196","0.8692"
"45.3000","11.2278","0.8709"
"45.4000","11.2361","0.8727"
"45.5000","11.2445","0.8741"
"45.6000","11.2528","0.8760"
"45.7000","11.2612","0.8776"
"45.8000","11.2694","0.8795"
"45.9000","11.2778","0.8811"
"46.0000","11.2862","0.8826"
"46.1000","11.2944","0.8844"
"46.2000","11.3029","0.8864"
"46.3000","11.3112","0.8877"
"46.4000","11.3196","0.8894"
"46.5000","11.3279","0.8912"
"46.6000","11.3362","0.8928"
"46.7000","11.3446","0.8945"
"46.8000","11.3528","0.8963"
"46.9000","11.3612","0.8980"
"47.0000","11.3694","0.8996"
"47.1000","11.3777","0.9013"
"47.2000","11.3862","0.9033"
"47.3000","11.3945","0.9048"
"47.4000","11.4028","0.9066"
"47.5000","11.4111","0.9084"
"47.6000","11.4194","0.9104"
"47.7000","11.4278","0.9118"
"47.8000","11.4361","0.9137"
"47.9000","11.4445","0.9155"
"48.0000","11.4529","0.9171"
"48.1000","11.4611","0.9185"
"48.2000","11.4696","0.9205"
"48.3000","11.4779","0.9221"
"48.4000","11.4861","0.9239"
"48.5000","11.4945","0.9257"
"48.6000","11.5028","0.9275"
"48.7000","11.5111","0.9293"
"48.8000","11.5194","0.9311"
"48.9000","11.5279","0.9324"
"49.0000","11.5362","0.9344"
"49.1000","11.5444","0.9359"
"49.2000","11.5528","0.9375"
"49.3000","11.5612","0.9394"
"49.4000","11.5695","0.9411"
"49.5000","11.5779","0.9421"
"49.6000","11.5863","0.9443"
"49.7000","11.5944","0.9460"
"49.8000","11.6027","0.9478"
"49.9000","11.6112","0.9495"
"50.0000","11.6195","0.9511"
"50.1000","11.6278","0.9529"
"50.2000","11.6362","0.9546"
"50.3000","11.6444","0.9562"
"50.4000","11.6528","0.9577"
"50.5000","11.6612","0.9596"
"50.6000","11.6694","0.9613"
"50.7000","11.6778","0.9630"
"50.8000","11.6861","0.9644"
"50.9000","11.6946","0.9665"
"51.0000","11.7029","0.9681"
"51.1000","11.7111","0.9696"
"51.2000","11.7196","0.9716"
"51.3000","11.7278","0.9735"
"51.4000","11.7361","0.9750"
"51.5000","11.7445","0.9767"
"51.6000","11.7528","0.9782"
"51.7000","11.7612","0.9798"
"51.8000","11.7694","0.9815"
"51.9000","11.7778","0.9832"
"52.0000","11.7862","0.9852"
"52.1000","11.7944","0.9868"
"52.2000","11.8029","0.9884"
"52.3000","11.8113","0.9901"
"52.4000","11.8194","0.9920"
"52.5000","11.8279","0.9936"
"52.6000","11.8362","0.9950"
"52.7000","11.8446","0.9970"
"52.8000","11.8528","0.9985"
"52.9000","11.8611","1.0002"
"53.0000","11.8695","1.0018"
"53.1000","11.8777","1.0034"
"53.2000","11.8863","1.0052"
"53.3000","11.8945","1.0071"
"53.4000","11.9027","1.0086"
"53.5000","11.9111","1.0103"
"53.6000","11.9195","1.0122"
"53.7000","11.9279","1.0138"
"53.8000","11.9361","1.0155"
"53.9000","11.9445","1.0174"
"54.0000","11.9529","1.0190"
"54.1000","11.9611","1.0205"
"54.2000","11.9696","1.0221"
"54.3000","11.9779","1.0243"
"54.4000","11.9862","1.0257"
"54.5000","11.9944","1.0277"
"54.6000","12.0028","1.0293"
"54.7000","12.0112","1.0311"
"54.8000","12.0194","1.0324"
"54.9000","12.0278","1.0343"
"55.0000","12.0361","1.0361"
"55.1000","12.0443","1.0377"
"55.2000","12.0529","1.0396"
"55.3000","12.0613","1.0411"
"55.4000","12.0695","1.0430"
"55.5000","12.0779","1.0449"
"55.6000","12.0862","1.0464"
"55.7000","12.0945","1.0481"
"55.8000","12.1028","1.0498"
"55.9000","12.1112","1.0513"
"56.0000","12.1194","1.0531"
"56.1000","12.1277","1.0550"
"56.2000","12.1362","1.0564"
"56.3000","12.1445","1.0581"
"56.4000","12.1528","1.0600"
"56.5000","12.1611","1.0613"
"56.6000","12.1694","1.0631"
"56.7000","12.1778","1.0648"
"56.8000","12.1862","1.0667"
"56.9000","12.1946","1.0681"
"57.0000","12.2029","1.0698"
"57.1000","12.2111","1.0715"
"57.2000","12.2195","1.0729"
"57.3000","12.2278","1.0750"
"57.4000","12.2361","1.0766"
"57.5000","12.2445","1.0784"
"57.6000","12.2528","1.0799"
"57.7000","12.2611","1.0819"
"57.8000","12.2694","1.0835"
"57.9000","12.2779","1.0849"
"58.0000","12.2862","1.0864"
"58.1000","12.2944","1.0881"
"58.2000","12.3029","1.0899"
"58.3000","12.3112","1.0912"
"58.4000","12.3196","1.0930"
"58.5000","12.3279","1.0947"
"58.6000","12.3362","1.0964"
"58.7000","12.3445","1.0981"
"58.8000","12.3528","1.1000"
"58.9000","12.3612","1.1017"
"59.0000","12.3695","1.1029"
"59.1000","12.3777","1.1047"
"59.2000","12.3863","1.1062"
"59.3000","12.3944","1.1083"
"59.4000","12.4028","1.1098"
"59.5000","12.4112","1.1113"
"59.6000","12.4194","1.1129"
"59.7000","12.4278","1.1150"
"59.8000","12.4361","1.1164"
"59.9000","12.4445","1.1181"
"60.0000","12.4529","1.1195"
"60.1000","12.4611","1.1210"
"60.2000","12.4696","1.1226"
"60.3000","12.4778","1.1247"
"60.4000","12.4861","1.1260"
"60.5000","12.4945","1.1276"
"60.6000","12.5028","1.1292"
"60.7000","12.5111","1.1307"
"60.8000","12.5194","1.1325"
"60.9000","12.5278","1.1342"
"61.0000","12.5361","1.1357"
"61.1000","12.5443","1.1375"
"61.2000","12.5529","1.1386"
"61.3000","12.5613","1.1406"
"61.4000","12.5696","1.1423"
"61.5000","12.5779","1.1436"
"61.6000","12.5862","1.1456"
"61.7000","12.5946","1.1467"
"61.8000","12.6028","1.1486"
"61.9000","12.6112","1.1500"
"62.0000","12.6195","1.1518"
"62.1000","12.6278","1.1533"
"62.2000","12.6363","1.1549"
"62.3000","12.6445","1.1566"
"62.4000","12.6527","1.1582"
"62.5000","12.6611","1.1603"
"62.6000","12.6694","1.1616"
"62.7000","12.6778","1.1626"
"62.8000","12.6861","1.1643"
"62.9000","12.6946","1.1661"
"63.0000","12.7029","1.1676"
"63.1000","12.7111","1.1691"
"63.2000","12.7196","1.1709"
"63.3000","12.7279","1.1724"
"63.4000","12.7361","1.1738"
"63.5000","12.7445","1.1763"
"63.6000","12.7528","1.1775"
"63.7000","12.7611","1.1788"
"63.8000","12.7694","1.1805"
"63.9000","12.7778","1.1821"
"64.0000","12.7861","1.1837"
"64.1000","12.7943","1.1854"
"64.2000","12.8029","1.1868"
"64.3000","12.8112","1.1884"
"64.4000","12.8195","1.1899"
"64.5000","12.8279","1.1916"
"64.6000","12.8363","1.1930"
"64.7000","12.8445","1.1949"
"64.8000","12.8528","1.1963"
"64.9000","12.8612","1.1980"
"65.0000","12.8695","1.1995"
"65.1000","12.8777","1.2013"
"65.2000","12.8863","1.2026"
"65.3000","12.8945","1.2043"
"65.4000","12.9028","1.2062"
"65.5000","12.9112","1.2071"
"65.6000","12.9194","1.2089"
"65.7000","12.9278","1.2106"
"65.8000","12.9361","1.2119"
"65.9000","12.9446","1.2138"
"66.0000","12.9529","1.2151"
"66.1000","12.9611","1.2169"
"66.2000","12.9696","1.2187"
"66.3000","12.9778","1.2200"
"66.4000","12.9861","1.2219"
"66.5000","12.9946","1.2232"
"66.6000","13.0028","1.2245"
"66.7000","13.0112","1.2266"
"66.8000","13.0194","1.2282"
"66.9000","13.0278","1.2297"
"67.0000","13.0361","1.2312"
"67.1000","13.0444","1.2330"
"67.2000","13.0529","1.2342"
"67.3000","13.0613","1.2362"
"67.4000","13.0695","1.2380"
"67.5000","13.0779","1.2393"
"67.6000","13.0862","1.2407"
"67.7000","13.0945","1.2431"
"67.8000","13.1028","1.2444"
"67.9000","13.1112","1.2452"
"68.0000","13.1195","1.2460"
"68.1000","13.1278","1.2473"
"68.2000","13.1362","1.2485"
"68.3000","13.1444","1.2501"
"68.4000","13.1528","1.2516"
"68.5000","13.1611","1.2530"
"68.6000","13.1694","1.2548"
"68.7000","13.1778","1.2563"
"68.8000","13.1861","1.2581"
"68.9000","13.1945","1.2599"
"69.0000","13.2029","1.2612"
"69.1000","13.2111","1.2624"
"69.2000","13.2196","1.2642"
"69.3000","13.2278","1.2659"
"69.4000","13.2361","1.2668"
"69.5000","13.2444","1.2687"
"69.6000","13.2527","1.2705"
"69.7000","13.2612","1.2719"
"69.8000","13.2694","1.2736"
"69.9000","13.2778","1.2748"
"70.0000","13.2861","1.2767"
"70.1000","13.2943","1.2782"
"70.2000","13.3029","1.2799"
"70.3000","13.3112","1.2809"
"70.4000","13.3195","1.2827"
"70.5000","13.3279","1.2841"
"70.6000","13.3362","1.2859"
"70.7000","13.3446","1.2875"
"70.8000","13.3528","1.2890"
"70.9000","13.3612","1.2904"
"71.0000","13.3695","1.2920"
"71.1000","13.3777","1.2934"
"71.2000","13.3862","1.2950"
"71.3000","13.3945","1.2968"
"71.4000","13.4028","1.2976"
"71.5000","13.4111","1.2995"
"71.6000","13.4194","1.3014"
"71.7000","13.4277","1.3029"
"71.8000","13.4361","1.3043"
"71.9000","13.4446","1.3058"
"72.0000","13.4528","1.3072"
"72.1000","13.4611","1.3088"
"72.2000","13.4695","1.3107"
"72.3000","13.4778","1.3117"
"72.4000","13.4861","1.3134"
"72.5000","13.4945","1.3152"
"72.6000","13.5028","1.3166"
"72.7000","13.5112","1.3182"
"72.8000","13.5194","1.3194"
"72.9000","13.5279","1.3208"
"73.0000","13.5362","1.3225"
"73.1000","13.5444","1.3242"
"73.2000","13.5529","1.3256"
"73.3000","13.5612","1.3271"
"73.4000","13.5695","1.3286"
"73.5000","13.5779","1.3303"
"73.6000","13.5862","1.3317"
"73.7000","13.5946","1.3330"
"73.8000","13.6028","1.3349"
"73.9000","13.6112","1.3363"
"74.0000","13.6195","1.3377"
"74.1000","13.6277","1.3392"
"74.2000","13.6362","1.3409"
"74.3000","13.6444","1.3422"
"74.4000","13.6527","1.3437"
"74.5000","13.6612","1.3454"
"74.6000","13.6694","1.3467"
"74.7000","13.6777","1.3484"
"74.8000","13.6861","1.3499"
"74.9000","13.6946","1.3517"
"75.0000","13.7029","1.3529"
"75.1000","13.7111","1.3546"
"75.2000","13.7196","1.3561"
"75.3000","13.7278","1.3581"
"75.4000","13.7361","1.3591"
"75.5000","13.7444","1.3608"
"75.6000","13.7527","1.3624"
"75.7000","13.7612","1.3634"
"75.8000","13.7694","1.3651"
"75.9000","13.7778","1.3672"
"76.0000","13.7861","1.3684"
"76.1000","13.7944","1.3701"
"76.2000","13.8029","1.3671"
"76.3000","13.8112","1.3613"
"76.4000","13.8196","1.3608"
"76.5000","13.8279","1.3620"
"76.6000","13.8362","1.3634"
"76.7000","13.8446","1.3646"
"76.8000","13.8528","1.3662"
"76.9000","13.8612","1.3675"
"77.0000","13.8694","1.3688"
"77.1000","13.8776","1.3702"
"77.2000","13.8863","1.3718"
"77.3000","13.8945","1.3733"
"77.4000","13.9028","1.3744"
"77.5000","13.9111","1.3759"
"77.6000","13.9194","1.3775"
"77.7000","13.9278","1.3787"
"77.8000","13.9361","1.3805"
"77.9000","13.9446","1.3818"
"78.0000","13.9529","1.3831"
"78.1000","13.9611","1.3847"
"78.2000","13.9696","1.3860"
"78.3000","13.9778","1.3870"
"78.4000","13.9861","1.3892"
"78.5000","13.9945","1.3903"
"78.6000","14.0028","1.3918"
"78.7000","14.0111","1.3932"
"78.8000","14.0194","1.3948"
"78.9000","14.0278","1.3958"
"79.0000","14.0361","1.3976"
"79.1000","14.0444","1.3990"
"79.2000","14.0529","1.4002"
"79.3000","14.0612","1.4016"
"79.4000","14.0696","1.4033"
"79.5000","14.0779","1.4043"
"79.6000","14.0862","1.4060"
"79.7000","14.0945","1.4077"
"79.8000","14.1027","1.4092"
"79.9000","14.1112","1.4107"
"80.0000","14.1195","1.4119"
"80.1000","14.1277","1.4134"
"80.2000","14.1362","1.4150"
"80.3000","14.1444","1.4162"
"80.4000","14.1528","1.4174"
"80.5000","14.1612","1.4189"
"80.6000","14.1694","1.4203"
"80.7000","14.1778","1.4220"
"80.8000","14.1861","1.4232"
"80.9000","14.1946","1.4250"
"81.0000","14.2029","1.4262"
"81.1000","14.2111","1.4276"
"81.2000","14.2196","1.4290"
"81.3000","14.2278","1.4305"
"81.4000","14.2361","1.4321"
"81.5000","14.2445","1.4335"
"81.6000","14.2528","1.4347"
"81.7000","14.2611","1.4364"
"81.8000","14.2694","1.4379"
"81.9000","14.2778","1.4393"
"82.0000","14.2861","1.4409"
"82.1000","14.2943","1.4423"
"82.2000","14.3029","1.4439"
"82.3000","14.3112","1.4453"
"82.4000","14.3195","1.4465"
"82.5000","14.3279","1.4480"
"82.6000","14.3362","1.4494"
"82.7000","14.3445","1.4507"
"82.8000","14.3528","1.4525"
"82.9000","14.3612","1.4536"
"83.0000","14.3694","1.4551"
"83.1000","14.3777","1.4565"
"83.2000","14.3863","1.4581"
"83.3000","14.3945","1.4596"
"83.4000","14.4027","1.4608"
"83.5000","14.4111","1.4624"
"83.6000","14.4194","1.4638"
"83.7000","14.4279","1.4651"
"83.8000","14.4361","1.4669"
"83.9000","14.4445","1.4683"
"84.0000","14.4529","1.4696"
"84.1000","14.4611","1.4710"
"84.2000","14.4696","1.4724"
"84.3000","14.4778","1.4740"
"84.4000","14.4861","1.4752"
"84.5000","14.4944","1.4768"
"84.6000","14.5028","1.4780"
"84.7000","14.5112","1.4795"
"84.8000","14.5194","1.4810"
"84.9000","14.5278","1.4825"
"85.0000","14.5361","1.4839"
"85.1000","14.5443","1.4853"
"85.2000","14.5529","1.4867"
"85.3000","14.5613","1.4883"
"85.4000","14.5695","1.4895"
"85.5000","14.5779","1.4912"
"85.6000","14.5862","1.4922"
"85.7000","14.5946","1.4922"
"85.8000","14.6028","1.4933"
"85.9000","14.6112","1.4773"
"86.0000","14.6195","1.4782"
"86.1000","14.6277","1.4762"
"86.2000","14.6362","1.4763"
"86.3000","14.6445","1.4770"
"86.4000","14.6528","1.4737"
"86.5000","14.6611","1.4661"
"86.6000","14.6694","1.4670"
"86.7000","14.6778","1.4675"
"86.8000","14.6861","1.4682"
"86.9000","14.6946","1.4692"
"87.0000","14.7029","1.4691"
"87.1000","14.7111","1.4694"
"87.2000","14.7196","1.4709"
"87.3000","14.7279","1.4721"
"87.4000","14.7361","1.4734"
"87.5000","14.7445","1.4741"
"87.6000","14.7528","1.4718"
"87.7000","14.7612","1.4727"
"87.8000","14.7694","1.4673"
"87.9000","14.7778","1.4682"
"88.0000","14.7862","1.4693"
"88.1000","14.7943","1.4704"
"88.2000","14.8029","1.4714"
"88.3000","14.8112","1.4717"
"88.4000","14.8195","1.4596"
"88.5000","14.8279","1.4558"
"88.6000","14.8362","1.4559"
"88.7000","14.8446","1.4570"
"88.8000","14.8528","1.4581"
"88.9000","14.8612","1.4590"
"89.0000","14.8695","1.4602"
"89.1000","14.8777","1.4613"
"89.2000","14.8863","1.4628"
"89.3000","14.8945","1.4644"
"89.4000","14.9028","1.4540"
"89.5000","14.9112","1.4544"
"89.6000","14.9195","1.4498"
"89.7000","14.9278","1.4387"
"89.8000","14.9361","1.4365"
"89.9000","14.9446","1.4319"
"90.0000","14.9529","1.4325"
"90.1000","14.9611","1.4329"
"90.2000","14.9696","1.4335"
"90.3000","14.9778","1.4240"
"90.4000","14.9861","1.4209"
"90.5000","14.9945","1.4211"
"90.6000","15.0028","1.4175"
"90.7000","15.0112","1.4173"
"90.8000","15.0194","1.4178"
"90.9000","15.0278","1.4179"
"91.0000","15.0361","1.4188"
"91.1000","15.0443","1.4196"
"91.2000","15.0529","1.4132"
"91.3000","15.0613","1.4080"
"91.4000","15.0695","1.4074"
"91.5000","15.0779","1.4074"
"91.6000","15.0862","1.4083"
"91.7000","15.0945","1.4094"
"91.8000","15.1028","1.3930"
"91.9000","15.1112","1.3930"
"92.0000","15.1195","1.3904"
"92.1000","15.1277","1.3905"
"92.2000","15.1362","1.3908"
"92.3000","15.1445","1.3916"
"92.4000","15.1528","1.3872"
"92.5000","15.1612","1.3841"
"92.6000","15.1694","1.3848"
"92.7000","15.1778","1.3853"
"92.8000","15.1861","1.3861"
"92.9000","15.1946","1.3852"
"93.0000","15.2029","1.3829"
"93.1000","15.2111","1.3837"
"93.2000","15.2196","1.3810"
"93.3000","15.2278","1.3812"
"93.4000","15.2361","1.3819"
"93.5000","15.2445","1.3825"
"93.6000","15.2528","1.3829"
"93.7000","15.2611","1.3835"
"93.8000","15.2694","1.3843"
"93.9000","15.2778","1.3847"
"94.0000","15.2862","1.3856"
"94.1000","15.2943","1.3862"
"94.2000","15.3029","1.3815"
"94.3000","15.3113","1.3520"
"94.4000","15.3196","1.3147"
"94.5000","15.3279","1.2942"
"94.6000","15.3363","1.2861"
"94.7000","15.3445","1.2823"
"94.8000","15.3527","1.2809"
"94.9000","15.3612","1.2798"
"95.0000","15.3695","1.2797"
"95.1000","15.3777","1.2788"
"95.2000","15.3862","1.2790"
"95.3000","15.3944","1.2790"
"95.4000","15.4027","1.2764"
"95.5000","15.4112","1.2655"
"95.6000","15.4194","1.2639"
"95.7000","15.4278","1.2632"
"95.8000","15.4361","1.2537"
"95.9000","15.4446","1.2512"
"96.0000","15.4529","1.2502"
"96.1000","15.4611","1.2490"
"96.2000","15.4696","1.2482"
"96.3000","15.4778","1.2472"
"96.4000","15.4861","1.2402"
"96.5000","15.4945","1.2391"
"96.6000","15.5028","1.2378"
"96.7000","15.5111","1.2376"
"96.8000","15.5194","1.2371"
"96.9000","15.5278","1.2349"
"97.0000","15.5362","1.2345"
"97.1000","15.5444","1.2341"
"97.2000","15.5529","1.2320"
"97.3000","15.5612","1.2315"
"97.4000","15.5695","1.2315"
"97.5000","15.5779","1.2317"
"97.6000","15.5863","1.2317"
"97.7000","15.5945","1.2325"
"97.8000","15.6028","1.2327"
"97.9000","15.6111","1.2333"
"98.0000","15.6194","1.2189"
"98.1000","15.6277","1.2147"
"98.2000","15.6363","1.2125"
"98.3000","15.6444","1.2109"
"98.4000","15.6528","1.2097"
"98.5000","15.6611","1.2085"
"98.6000","15.6694","1.2081"
"98.7000","15.6778","1.2077"
"98.8000","15.6861","1.2058"
"98.9000","15.6946","1.2027"
"99.0000","15.7029","1.2018"
"99.1000","15.7111","1.2005"
"99.2000","15.7196","1.1998"
"99.3000","15.7278","1.1998"
"99.4000","15.7361","1.1997"
"99.5000","15.7444","1.1997"
"99.6000","15.7528","1.1996"
"99.7000","15.7612","1.1997"
"99.8000","15.7694","1.2001"
"99.9000","15.7778","1.1984"
"100.0000","15.7861","1.1960"
"100.1000","15.7944","1.1949"
"100.2000","15.8029","1.1942"
"100.3000","15.8113","1.1892"
"100.4000","15.8195","1.1854"
"100.5000","15.8279","1.1816"
"100.6000","15.8362","1.1765"
"100.7000","15.8445","1.1742"
"100.8000","15.8528","1.1724"
"100.9000","15.8612","1.1707"
"101.0000","15.8694","1.1697"
"101.1000","15.8777","1.1690"
"101.2000","15.8862","1.1685"
"101.3000","15.8944","1.1681"
"101.4000","15.9028","1.1627"
"101.5000","15.9111","1.1556"
"101.6000","15.9194","1.1518"
"101.7000","15.9278","1.1501"
"101.8000","15.9361","1.1477"
"101.9000","15.9446","1.1383"
"102.0000","15.9529","1.1340"
"102.1000","15.9611","1.1311"
"102.2000","15.9696","1.1296"
"102.3000","15.9778","1.1256"
"102.4000","15.9861","1.1230"
"102.5000","15.9945","1.1214"
"102.6000","16.0028","1.1190"
"102.7000","16.0111","1.1169"
"102.8000","16.0194","1.1131"
"102.9000","16.0278","1.1114"
"103.0000","16.0361","1.1098"
"103.1000","16.0444","1.1086"
"103.2000","16.0529","1.1081"
"103.3000","16.0613","1.1078"
"103.4000","16.0695","1.1073"
"103.5000","16.0779","1.1074"
"103.6000","16.0863","1.1074"
"103.7000","16.0946","1.1075"
"103.8000","16.1028","1.1074"
"103.9000","16.1112","1.1074"
"104.0000","16.1195","1.1082"
"104.1000","16.1277","1.1073"
"104.2000","16.1363","1.1044"
"104.3000","16.1445","1.1032"
"104.4000","16.1528","1.1021"
"104.5000","16.1611","1.1016"
"104.6000","16.1694","1.1015"
"104.7000","16.1778","1.1017"
"104.8000","16.1861","1.1013"
"104.9000","16.1946","1.1017"
"105.0000","16.2029","1.1012"
"105.1000","16.2111","1.1005"
"105.2000","16.2196","1.1004"
"105.3000","16.2278","1.0998"
"105.4000","16.2361","1.1000"
"105.5000","16.2445","1.1003"
"105.6000","16.2528","1.1000"
"105.7000","16.2612","1.1007"
"105.8000","16.2694","1.1009"
"105.9000","16.2778","1.1014"
"106.0000","16.2861","1.1014"
"106.1000","16.2944","1.1018"
"106.2000","16.3029","1.1023"
"106.3000","16.3113","1.1028"
"106.4000","16.3195","1.1030"
"106.5000","16.3279","1.1035"
"106.6000","16.3363","1.1039"
"106.7000","16.3446","1.1045"
"106.8000","16.3528","1.1048"
"106.9000","16.3612","1.1046"
"107.0000","16.3694","1.1050"
"107.1000","16.3777","1.1051"
"107.2000","16.3862","1.1052"
"107.3000","16.3944","1.1056"
"107.4000","16.4028","1.1058"
"107.5000","16.4112","1.1065"
"107.6000","16.4194","1.1070"
"107.7000","16.4278","1.1076"
"107.8000","16.4361","1.1078"
"107.9000","16.4446","1.1085"
"108.0000","16.4529","1.1088"
"108.1000","16.4611","1.1096"
"108.2000","16.4696","1.1099"
"108.3000","16.4779","1.1103"
"108.4000","16.4861","1.1110"
"108.5000","16.4945","1.1113"
"108.6000","16.5028","1.1119"
"108.7000","16.5111","1.1125"
"108.8000","16.5194","1.1129"
"108.9000","16.5278","1.1136"
"109.0000","16.5361","1.1142"
"109.1000","16.5443","1.1149"
"109.2000","16.5528","1.1152"
"109.3000","16.5612","1.1159"
"109.4000","16.5696","1.1165"
"109.5000","16.5779","1.1168"
"109.6000","16.5862","1.1175"
"109.7000","16.5945","1.1180"
"109.8000","16.6028","1.1190"
"109.9000","16.6112","1.1192"
"110.0000","16.6195","1.1201"
"110.1000","16.6277","1.1204"
"110.2000","16.6362","1.1212"
"110.3000","16.6444","1.1215"
"110.4000","16.6528","1.1221"
"110.5000","16.6612","1.1229"
"110.6000","16.6694","1.1235"
"110.7000","16.6778","1.1240"
"110.8000","16.6861","1.1245"
"110.9000","16.6945","1.1250"
"111.0000","16.7029","1.1254"
"111.1000","16.7111","1.1260"
"111.2000","16.7196","1.1265"
"111.3000","16.7278","1.1270"
"111.4000","16.7361","1.1273"
"111.5000","16.7445","1.1277"
"111.6000","16.7528","1.1222"
"111.7000","16.7611","1.1209"
"111.8000","16.7694","1.1200"
"111.9000","16.7778","1.1194"
"112.0000","16.7862","1.1191"
"112.1000","16.7944","1.1185"
"112.2000","16.8029","1.1175"
"112.3000","16.8112","1.1167"
"112.4000","16.8194","1.1158"
"112.5000","16.8279","1.1153"
"112.6000","16.8362","1.1148"
"112.7000","16.8445","1.1146"
"112.8000","16.8528","1.1140"
"112.9000","16.8612","1.1121"
"113.0000","16.8695","1.1113"
"113.1000","16.8777","1.1106"
"113.2000","16.8862","1.1097"
"113.3000","16.8944","1.1062"
"113.4000","16.9028","1.1058"
"113.5000","16.9111","1.1046"
"113.6000","16.9194","1.1039"
"113.7000","16.9278","1.1037"
"113.8000","16.9361","1.1032"
"113.9000","16.9446","1.1029"
"114.0000","16.9529","1.1030"
"114.1000","16.9611","1.1018"
"114.2000","16.9696","1.1023"
"114.3000","16.9778","1.1024"
"114.4000","16.9861","1.1011"
"114.5000","16.9944","1.1004"
"114.6000","17.0028","1.0998"
"114.7000","17.0111","1.0991"
"114.8000","17.0194","1.0987"
"114.9000","17.0278","1.0991"
"115.0000","17.0361","1.0986"
"115.1000","17.0443","1.0992"
"115.2000","17.0529","1.0986"
"115.3000","17.0612","1.0981"
"115.4000","17.0696","1.0972"
"115.5000","17.0779","1.0966"
"115.6000","17.0862","1.0966"
"115.7000","17.0946","1.0964"
"115.8000","17.1028","1.0962"
"115.9000","17.1112","1.0957"
"116.0000","17.1194","1.0960"
"116.1000","17.1277","1.0959"
"116.2000","17.1363","1.0959"
"116.3000","17.1445","1.0962"
"116.4000","17.1527","1.0963"
"116.5000","17.1611","1.0962"
"116.6000","17.1694","1.0960"
"116.7000","17.1778","1.0961"
"116.8000","17.1861","1.0961"
"116.9000","17.1945","1.0962"
"117.0000","17.2029","1.0966"
"117.1000","17.2111","1.0945"
"117.2000","17.2196","1.0921"
"117.3000","17.2278","1.0905"
"117.4000","17.2361","1.0896"
"117.5000","17.2445","1.0889"
"117.6000","17.2528","1.0884"
"117.7000","17.2611","1.0879"
"117.8000","17.2694","1.0877"
"117.9000","17.2778","1.0876"
"118.0000","17.2861","1.0872"
"118.1000","17.2943","1.0878"
"118.2000","17.3029","1.0874"
"118.3000","17.3112","1.0878"
"118.4000","17.3195","1.0873"
"118.5000","17.3279","1.0875"
"118.6000","17.3363","1.0880"
"118.7000","17.3446","1.0879"
"118.8000","17.3528","1.0880"
"118.9000","17.3612","1.0882"
"119.0000","17.3695","1.0883"
"119.1000","17.3777","1.0887"
"119.2000","17.3862","1.0884"
"119.3000","17.3945","1.0895"
"119.4000","17.4028","1.0894"
"119.5000","17.4112","1.0895"
"119.6000","17.4194","1.0895"
"119.7000","17.4278","1.0899"
"119.8000","17.4361","1.0902"
"119.9000","17.4446","1.0898"
"120.0000","17.4529","1.0901"
"120.1000","17.4611","1.0905"
"120.2000","17.4696","1.0905"
"120.3000","17.4778","1.0897"
"120.4000","17.4861","1.0900"
"120.5000","17.4945","1.0907"
"120.6000","17.5028","1.0906"
"120.7000","17.5111","1.0909"
"120.8000","17.5194","1.0914"
"120.9000","17.5278","1.0915"
"121.0000","17.5361","1.0911"
"121.1000","17.5444","1.0914"
"121.2000","17.5529","1.0914"
"121.3000","17.5612","1.0914"
"121.4000","17.5695","1.0899"
"121.5000","17.5779","1.0893"
"121.6000","17.5862","1.0893"
"121.7000","17.5946","1.0894"
"121.8000","17.6028","1.0898"
"121.9000","17.6112","1.0895"
"122.0000","17.6194","1.0896"
"122.1000","17.6277","1.0896"
"122.2000","17.6363","1.0895"
"122.3000","17.6445","1.0895"
"122.4000","17.6528","1.0879"
"122.5000","17.6611","1.0815"
"122.6000","17.6694","1.0812"
"122.7000","17.6778","1.0816"
"122.8000","17.6862","1.0805"
"122.9000","17.6946","1.0803"
"123.0000","17.7029","1.0805"
"123.1000","17.7111","1.0805"
"123.2000","17.7196","1.0803"
"123.3000","17.7278","1.0799"
"123.4000","17.7361","1.0790"
"123.5000","17.7445","1.0724"
"123.6000","17.7528","1.0564"
"123.7000","17.7612","1.0238"
"123.8000","17.7694","1.0159"
"123.9000","17.7778","0.9956"
"124.0000","17.7861","0.9802"
"124.1000","17.7943","0.9677"
"124.2000","17.8029","0.8917"
"124.3000","17.8113","0.8026"
"124.4000","17.8196","0.6251"
"124.5000","17.8279","0.5716"
"124.6000","17.8362","0.5589"
"124.7000","17.8445","0.5486"
"124.8000","17.8528","0.5441"
"124.9000","17.8612","0.5031"
"125.0000","17.8695","0.4944"
"125.1000","17.8777","0.4930"
"125.2000","17.8862","0.4895"
"125.3000","17.8945","0.4856"
"125.4000","17.9028","0.4834"
"125.5000","17.9111","0.4824"
"125.6000","17.9194","0.4739"
"125.7000","17.9278","0.4598"
"125.8000","17.9361","0.4592"
"125.9000","17.9446","0.4590"
"126.0000","17.9529","0.4593"
"126.1000","17.9611","0.4590"
"126.2000","17.9696","0.4582"
"126.3000","17.9778","0.4581"
"126.4000","17.9861","0.4578"
"126.5000","17.9945","0.4578"
"126.6000","18.0028","0.4580"
"126.7000","18.0112","0.4575"
"126.8000","18.0194","0.4468"
"126.9000","18.0278","0.4450"
"127.0000","18.0361","0.4450"
"127.1000","18.0443","0.4447"
"127.2000","18.0529","0.4449"
"127.3000","18.0612","0.4444"
"127.4000","18.0695","0.4444"
"127.5000","18.0779","0.4425"
"127.6000","18.0863","0.4420"
"127.7000","18.0946","0.4419"
"127.8000","18.1028","0.4421"
"127.9000","18.1112","0.4420"
"128.0000","18.1194","0.4420"
"128.1000","18.1278","0.4420"
"128.2000","18.1363","0.4421"
"128.3000","18.1444","0.4422"
"128.4000","18.1527","0.4418"
"128.5000","18.1612","0.4423"
"128.6000","18.1694","0.4422"
"128.7000","18.1778","0.4416"
"128.8000","18.1861","0.4420"
"128.9000","18.1946","0.4421"
"129.0000","18.2029","0.4419"
"129.1000","18.2111","0.4417"
"129.2000","18.2196","0.4413"
"129.3000","18.2278","0.4413"
"129.4000","18.2361","0.4417"
"129.5000","18.2445","0.4413"
"129.6000","18.2528","0.4408"
"129.7000","18.2611","0.4407"
"129.8000","18.2694","0.4369"
"129.9000","18.2779","0.4356"
"130.0000","18.2862","0.4348"
"130.1000","18.2944","0.4339"
"130.2000","18.3029","0.4337"
"130.3000","18.3113","0.4312"
"130.4000","18.3195","0.4311"
"130.5000","18.3279","0.4307"
"130.6000","18.3362","0.4301"
"130.7000","18.3445","0.4298"
"130.8000","18.3528","0.4288"
"130.9000","18.3612","0.4276"
"131.0000","18.3695","0.4259"
"131.1000","18.3777","0.4250"
"131.2000","18.3862","0.4243"
"131.3000","18.3945","0.4236"
"131.4000","18.4028","0.4227"
"131.5000","18.4112","0.4215"
"131.6000","18.4194","0.4175"
"131.7000","18.4278","0.4166"
"131.8000","18.4361","0.4150"
"131.9000","18.4446","0.4112"
"132.0000","18.4529","0.4105"
"132.1000","18.4611","0.4098"
"132.2000","18.4696","0.4097"
"132.3000","18.4778","0.4091"
"132.4000","18.4861","0.4077"
"132.5000","18.4944","0.4070"
"132.6000","18.5028","0.4069"
"132.7000","18.5111","0.4062"
"132.8000","18.5194","0.4061"
"132.9000","18.5278","0.4058"
"133.0000","18.5361","0.4039"
"133.1000","18.5444","0.4038"
"133.2000","18.5529","0.4033"
"133.3000","18.5612","0.4034"
"133.4000","18.5695","0.4032"
"133.5000","18.5779","0.4032"
"133.6000","18.5862","0.4030"
"133.7000","18.5946","0.4029"
"133.8000","18.6028","0.4029"
"133.9000","18.6112","0.4027"
"134.0000","18.6194","0.4026"
"134.1000","18.6278","0.4019"
"134.2000","18.6363","0.4008"
"134.3000","18.6444","0.4005"
"134.4000","18.6527","0.4004"
"134.5000","18.6612","0.4008"
"134.6000","18.6694","0.4006"
"134.7000","18.6778","0.4006"
"134.8000","18.6861","0.4008"
"134.9000","18.6946","0.4009"
"135.0000","18.7029","0.4008"
"135.1000","18.7111","0.4009"
"135.2000","18.7196","0.4008"
"135.3000","18.7278","0.4011"
"135.4000","18.7361","0.4008"
"135.5000","18.7444","0.4006"
"135.6000","18.7528","0.4005"
"135.7000","18.7612","0.4006"
"135.8000","18.7694","0.4005"
"135.9000","18.7778","0.4001"
"136.0000","18.7861","0.4003"
"136.1000","18.7943","0.4009"
"136.2000","18.8029","0.4005"
"136.3000","18.8112","0.4008"
"136.4000","18.8195","0.4008"
"136.5000","18.8279","0.4007"
"136.6000","18.8362","0.4007"
"136.7000","18.8446","0.4008"
"136.8000","18.8528","0.4006"
"136.9000","18.8612","0.3997"
"137.0000","18.8694","0.3980"
"137.1000","18.8777","0.3945"
"137.2000","18.8863","0.3920"
"137.3000","18.8945","0.3913"
"137.4000","18.9028","0.3911"
"137.5000","18.9111","0.3910"
"137.6000","18.9194","0.3904"
"137.7000","18.9278","0.3902"
"137.8000","18.9362","0.3893"
"137.9000","18.9446","0.3889"
"137.9940","18.9524","0.3890"