File: flexural/ES100_Trevor_Flexural_Data_12_1.csv
Specimen text inputs : Specimen text input  1,,""

Results Table 1
,Specimen text input  1
"12","h45_f2"

Results Table 2

Time,Displacement,Force
(s),(mm),(kN)
"0.0000","0.7654","0.0202"
"0.0800","0.7739","0.0217"
"0.1600","0.7782","0.0217"
"0.2400","0.7844","0.0219"
"0.3200","0.7908","0.0224"
"0.4000","0.7976","0.0230"
"0.4800","0.8041","0.0237"
"0.5600","0.8108","0.0240"
"0.6400","0.8176","0.0242"
"0.7200","0.8241","0.0251"
"0.8000","0.8309","0.0253"
"0.8800","0.8374","0.0262"
"0.9600","0.8443","0.0265"
"1.0400","0.8508","0.0276"
"1.1200","0.8575","0.0276"
"1.2000","0.8641","0.0285"
"1.2800","0.8708","0.0286"
"1.3600","0.8775","0.0295"
"1.4400","0.8841","0.0296"
"1.5200","0.8909","0.0306"
"1.6000","0.8975","0.0308"
"1.6800","0.9042","0.0312"
"1.7600","0.9108","0.0319"
"1.8400","0.9175","0.0325"
"1.9200","0.9241","0.0330"
"2.0000","0.9308","0.0339"
"2.0800","0.9374","0.0340"
"2.1600","0.9441","0.0344"
"2.2400","0.9509","0.0353"
"2.3200","0.9576","0.0357"
"2.4000","0.9642","0.0363"
"2.4800","0.9708","0.0368"
"2.5600","0.9774","0.0372"
"2.6400","0.9842","0.0377"
"2.7200","0.9908","0.0385"
"2.8000","0.9976","0.0394"
"2.8800","1.0042","0.0395"
"2.9600","1.0110","0.0401"
"3.0400","1.0174","0.0404"
"3.1200","1.0242","0.0412"
"3.2000","1.0309","0.0420"
"3.2800","1.0375","0.0421"
"3.3600","1.0441","0.0424"
"3.4400","1.0507","0.0437"
"3.5200","1.0576","0.0438"
"3.6000","1.0641","0.0444"
"3.6800","1.0709","0.0450"
"3.7600","1.0774","0.0455"
"3.8400","1.0843","0.0461"
"3.9200","1.0909","0.0465"
"4.0000","1.0974","0.0473"
"4.0800","1.1041","0.0474"
"4.1600","1.1107","0.0479"
"4.2400","1.1176","0.0484"
"4.3200","1.1241","0.0489"
"4.4000","1.1309","0.0500"
"4.4800","1.1376","0.0501"
"4.5600","1.1442","0.0509"
"4.6400","1.1508","0.0518"
"4.7200","1.1574","0.0517"
"4.8000","1.1642","0.0524"
"4.8800","1.1708","0.0530"
"4.9600","1.1776","0.0535"
"5.0400","1.1842","0.0536"
"5.1200","1.1909","0.0547"
"5.2000","1.1975","0.0552"
"5.2800","1.2041","0.0559"
"5.3600","1.2108","0.0559"
"5.4400","1.2175","0.0567"
"5.5200","1.2243","0.0573"
"5.6000","1.2307","0.0580"
"5.6800","1.2376","0.0583"
"5.7600","1.2442","0.0589"
"5.8400","1.2509","0.0594"
"5.9200","1.2576","0.0598"
"6.0000","1.2641","0.0606"
"6.0800","1.2709","0.0613"
"6.1600","1.2774","0.0618"
"6.2400","1.2842","0.0625"
"6.3200","1.2908","0.0626"
"6.4000","1.2976","0.0631"
"6.4800","1.3041","0.0641"
"6.5600","1.3108","0.0648"
"6.6400","1.3176","0.0650"
"6.7200","1.3242","0.0657"
"6.8000","1.3309","0.0661"
"6.8800","1.3374","0.0662"
"6.9600","1.3443","0.0671"
"7.0400","1.3509","0.0682"
"7.1200","1.3576","0.0682"
"7.2000","1.3641","0.0689"
"7.2800","1.3708","0.0695"
"7.3600","1.3775","0.0701"
"7.4400","1.3841","0.0704"
"7.5200","1.3909","0.0710"
"7.6000","1.3975","0.0721"
"7.6800","1.4043","0.0720"
"7.7600","1.4108","0.0730"
"7.8400","1.4174","0.0732"
"7.9200","1.4242","0.0737"
"8.0000","1.4308","0.0744"
"8.0800","1.4375","0.0748"
"8.1600","1.4441","0.0757"
"8.2400","1.4509","0.0765"
"8.3200","1.4576","0.0764"
"8.4000","1.4642","0.0769"
"8.4800","1.4708","0.0775"
"8.5600","1.4775","0.0788"
"8.6400","1.4843","0.0786"
"8.7200","1.4907","0.0797"
"8.8000","1.4976","0.0800"
"8.8800","1.5042","0.0804"
"8.9600","1.5110","0.0809"
"9.0400","1.5174","0.0815"
"9.1200","1.5242","0.0824"
"9.2000","1.5309","0.0827"
"9.2800","1.5375","0.0828"
"9.3600","1.5441","0.0836"
"9.4400","1.5508","0.0849"
"9.5200","1.5576","0.0847"
"9.6000","1.5642","0.0856"
"9.6800","1.5709","0.0860"
"9.7600","1.5775","0.0866"
"9.8400","1.5842","0.0872"
"9.9200","1.5909","0.0875"
"10.0000","1.5974","0.0880"
"10.0800","1.6041","0.0887"
"10.1600","1.6108","0.0893"
"10.2400","1.6176","0.0896"
"10.3200","1.6241","0.0901"
"10.4000","1.6309","0.0907"
"10.4800","1.6376","0.0914"
"10.5600","1.6441","0.0917"
"10.6400","1.6508","0.0927"
"10.7200","1.6574","0.0930"
"10.8000","1.6642","0.0933"
"10.8800","1.6708","0.0938"
"10.9600","1.6775","0.0947"
"11.0400","1.6841","0.0949"
"11.1200","1.6909","0.0958"
"11.2000","1.6976","0.0960"
"11.2800","1.7041","0.0964"
"11.3600","1.7108","0.0973"
"11.4400","1.7175","0.0979"
"11.5200","1.7243","0.0982"
"11.6000","1.7308","0.0985"
"11.6800","1.7376","0.0996"
"11.7600","1.7443","0.0996"
"11.8400","1.7509","0.1010"
"11.9200","1.7576","0.1007"
"12.0000","1.7641","0.1016"
"12.0800","1.7709","0.1018"
"12.1600","1.7774","0.1031"
"12.2400","1.7842","0.1029"
"12.3200","1.7908","0.1039"
"12.4000","1.7976","0.1039"
"12.4800","1.8041","0.1049"
"12.5600","1.8108","0.1054"
"12.6400","1.8176","0.1060"
"12.7200","1.8241","0.1062"
"12.8000","1.8308","0.1071"
"12.8800","1.8374","0.1073"
"12.9600","1.8442","0.1076"
"13.0400","1.8508","0.1088"
"13.1200","1.8575","0.1087"
"13.2000","1.8641","0.1092"
"13.2800","1.8708","0.1099"
"13.3600","1.8775","0.1108"
"13.4400","1.8841","0.1112"
"13.5200","1.8909","0.1115"
"13.6000","1.8975","0.1123"
"13.6800","1.9042","0.1129"
"13.7600","1.9108","0.1131"
"13.8400","1.9174","0.1136"
"13.9200","1.9241","0.1141"
"14.0000","1.9308","0.1151"
"14.0800","1.9375","0.1153"
"14.1600","1.9441","0.1158"
"14.2400","1.9509","0.1165"
"14.3200","1.9576","0.1168"
"14.4000","1.9642","0.1173"
"14.4800","1.9709","0.1181"
"14.5600","1.9775","0.1187"
"14.6400","1.9842","0.1184"
"14.7200","1.9908","0.1198"
"14.8000","1.9975","0.1200"
"14.8800","2.0042","0.1203"
"14.9600","2.0111","0.1212"
"15.0400","2.0175","0.1214"
"15.1200","2.0241","0.1219"
"15.2000","2.0309","0.1227"
"15.2800","2.0375","0.1233"
"15.3600","2.0441","0.1233"
"15.4400","2.0507","0.1243"
"15.5200","2.0576","0.1243"
"15.6000","2.0642","0.1250"
"15.6800","2.0709","0.1253"
"15.7600","2.0775","0.1258"
"15.8400","2.0843","0.1266"
"15.9200","2.0908","0.1270"
"16.0000","2.0974","0.1274"
"16.0800","2.1041","0.1279"
"16.1600","2.1108","0.1287"
"16.2400","2.1176","0.1292"
"16.3200","2.1241","0.1297"
"16.4000","2.1309","0.1301"
"16.4800","2.1376","0.1303"
"16.5600","2.1442","0.1306"
"16.6400","2.1507","0.1315"
"16.7200","2.1574","0.1321"
"16.8000","2.1642","0.1328"
"16.8800","2.1708","0.1330"
"16.9600","2.1775","0.1338"
"17.0400","2.1841","0.1338"
"17.1200","2.1909","0.1343"
"17.2000","2.1976","0.1352"
"17.2800","2.2041","0.1356"
"17.3600","2.2108","0.1359"
"17.4400","2.2175","0.1363"
"17.5200","2.2243","0.1369"
"17.6000","2.2308","0.1375"
"17.6800","2.2375","0.1377"
"17.7600","2.2443","0.1383"
"17.8400","2.2509","0.1390"
"17.9200","2.2576","0.1391"
"18.0000","2.2641","0.1399"
"18.0800","2.2709","0.1406"
"18.1600","2.2774","0.1410"
"18.2400","2.2842","0.1413"
"18.3200","2.2908","0.1417"
"18.4000","2.2976","0.1425"
"18.4800","2.3042","0.1430"
"18.5600","2.3108","0.1432"
"18.6400","2.3175","0.1435"
"18.7200","2.3241","0.1442"
"18.8000","2.3309","0.1448"
"18.8800","2.3374","0.1452"
"18.9600","2.3443","0.1455"
"19.0400","2.3509","0.1464"
"19.1200","2.3575","0.1461"
"19.2000","2.3641","0.1469"
"19.2800","2.3708","0.1476"
"19.3600","2.3776","0.1480"
"19.4400","2.3841","0.1486"
"19.5200","2.3909","0.1490"
"19.6000","2.3975","0.1492"
"19.6800","2.4043","0.1498"
"19.7600","2.4108","0.1505"
"19.8400","2.4174","0.1510"
"19.9200","2.4241","0.1509"
"20.0000","2.4308","0.1516"
"20.0800","2.4374","0.1523"
"20.1600","2.4441","0.1527"
"20.2400","2.4509","0.1534"
"20.3200","2.4576","0.1538"
"20.4000","2.4643","0.1541"
"20.4800","2.4709","0.1546"
"20.5600","2.4774","0.1553"
"20.6400","2.4842","0.1551"
"20.7200","2.4908","0.1561"
"20.8000","2.4975","0.1568"
"20.8800","2.5042","0.1570"
"20.9600","2.5111","0.1579"
"21.0400","2.5175","0.1582"
"21.1200","2.5242","0.1588"
"21.2000","2.5309","0.1590"
"21.2800","2.5375","0.1592"
"21.3600","2.5441","0.1602"
"21.4400","2.5507","0.1606"
"21.5200","2.5576","0.1605"
"21.6000","2.5642","0.1611"
"21.6800","2.5709","0.1620"
"21.7600","2.5775","0.1622"
"21.8400","2.5843","0.1623"
"21.9200","2.5908","0.1632"
"22.0000","2.5974","0.1636"
"22.0800","2.6041","0.1639"
"22.1600","2.6108","0.1642"
"22.2400","2.6176","0.1648"
"22.3200","2.6241","0.1650"
"22.4000","2.6309","0.1662"
"22.4800","2.6376","0.1663"
"22.5600","2.6442","0.1669"
"22.6400","2.6508","0.1674"
"22.7200","2.6574","0.1673"
"22.8000","2.6642","0.1683"
"22.8800","2.6708","0.1687"
"22.9600","2.6776","0.1692"
"23.0400","2.6841","0.1695"
"23.1200","2.6909","0.1700"
"23.2000","2.6975","0.1704"
"23.2800","2.7041","0.1706"
"23.3600","2.7108","0.1711"
"23.4400","2.7175","0.1714"
"23.5200","2.7243","0.1720"
"23.6000","2.7308","0.1725"
"23.6800","2.7376","0.1730"
"23.7600","2.7443","0.1730"
"23.8400","2.7509","0.1743"
"23.9200","2.7575","0.1740"
"24.0000","2.7641","0.1750"
"24.0800","2.7709","0.1753"
"24.1600","2.7774","0.1761"
"24.2400","2.7842","0.1759"
"24.3200","2.7908","0.1766"
"24.4000","2.7976","0.1772"
"24.4800","2.8041","0.1773"
"24.5600","2.8108","0.1779"
"24.6400","2.8175","0.1786"
"24.7200","2.8241","0.1789"
"24.8000","2.8309","0.1794"
"24.8800","2.8374","0.1796"
"24.9600","2.8442","0.1797"
"25.0400","2.8508","0.1805"
"25.1200","2.8575","0.1808"
"25.2000","2.8641","0.1812"
"25.2800","2.8708","0.1819"
"25.3600","2.8775","0.1824"
"25.4400","2.8841","0.1828"
"25.5200","2.8908","0.1829"
"25.6000","2.8975","0.1836"
"25.6800","2.9043","0.1839"
"25.7600","2.9108","0.1845"
"25.8400","2.9174","0.1849"
"25.9200","2.9242","0.1854"
"26.0000","2.9308","0.1857"
"26.0800","2.9374","0.1865"
"26.1600","2.9441","0.1865"
"26.2400","2.9509","0.1868"
"26.3200","2.9576","0.1873"
"26.4000","2.9642","0.1880"
"26.4800","2.9708","0.1881"
"26.5600","2.9774","0.1889"
"26.6400","2.9842","0.1895"
"26.7200","2.9908","0.1897"
"26.8000","2.9976","0.1900"
"26.8800","3.0043","0.1905"
"26.9600","3.0111","0.1911"
"27.0400","3.0175","0.1912"
"27.1200","3.0241","0.1917"
"27.2000","3.0309","0.1921"
"27.2800","3.0375","0.1923"
"27.3600","3.0441","0.1927"
"27.4400","3.0507","0.1934"
"27.5200","3.0576","0.1934"
"27.6000","3.0642","0.1941"
"27.6800","3.0709","0.1947"
"27.7600","3.0774","0.1950"
"27.8400","3.0842","0.1952"
"27.9200","3.0909","0.1959"
"28.0000","3.0974","0.1960"
"28.0800","3.1041","0.1965"
"28.1600","3.1108","0.1966"
"28.2400","3.1176","0.1974"
"28.3200","3.1241","0.1978"
"28.4000","3.1309","0.1983"
"28.4800","3.1376","0.1984"
"28.5600","3.1442","0.1988"
"28.6400","3.1508","0.1994"
"28.7200","3.1574","0.1998"
"28.8000","3.1642","0.2003"
"28.8800","3.1708","0.2006"
"28.9600","3.1776","0.2010"
"29.0400","3.1841","0.2013"
"29.1200","3.1909","0.2017"
"29.2000","3.1976","0.2023"
"29.2800","3.2041","0.2029"
"29.3600","3.2108","0.2028"
"29.4400","3.2175","0.2037"
"29.5200","3.2243","0.2039"
"29.6000","3.2308","0.2042"
"29.6800","3.2376","0.2050"
"29.7600","3.2443","0.2049"
"29.8400","3.2509","0.2055"
"29.9200","3.2576","0.2056"
"30.0000","3.2641","0.2062"
"30.0800","3.2709","0.2066"
"30.1600","3.2774","0.2070"
"30.2400","3.2843","0.2069"
"30.3200","3.2908","0.2079"
"30.4000","3.2976","0.2081"
"30.4800","3.3041","0.2083"
"30.5600","3.3108","0.2088"
"30.6400","3.3176","0.2094"
"30.7200","3.3242","0.2095"
"30.8000","3.3309","0.2097"
"30.8800","3.3374","0.2101"
"30.9600","3.3443","0.2104"
"31.0400","3.3508","0.2115"
"31.1200","3.3575","0.2115"
"31.2000","3.3641","0.2116"
"31.2800","3.3708","0.2123"
"31.3600","3.3776","0.2125"
"31.4400","3.3841","0.2131"
"31.5200","3.3909","0.2132"
"31.6000","3.3975","0.2137"
"31.6800","3.4042","0.2144"
"31.7600","3.4108","0.2144"
"31.8400","3.4174","0.2149"
"31.9200","3.4242","0.2149"
"32.0000","3.4308","0.2156"
"32.0800","3.4374","0.2160"
"32.1600","3.4441","0.2163"
"32.2400","3.4509","0.2167"
"32.3200","3.4576","0.2172"
"32.4000","3.4642","0.2174"
"32.4800","3.4708","0.2178"
"32.5600","3.4775","0.2184"
"32.6400","3.4842","0.2184"
"32.7200","3.4908","0.2191"
"32.8000","3.4975","0.2195"
"32.8800","3.5042","0.2194"
"32.9600","3.5110","0.2199"
"33.0400","3.5175","0.2202"
"33.1200","3.5243","0.2209"
"33.2000","3.5309","0.2210"
"33.2800","3.5375","0.2211"
"33.3600","3.5441","0.2215"
"33.4400","3.5507","0.2220"
"33.5200","3.5576","0.2221"
"33.6000","3.5641","0.2225"
"33.6800","3.5709","0.2233"
"33.7600","3.5774","0.2234"
"33.8400","3.5843","0.2238"
"33.9200","3.5909","0.2238"
"34.0000","3.5974","0.2244"
"34.0800","3.6041","0.2247"
"34.1600","3.6108","0.2253"
"34.2400","3.6176","0.2253"
"34.3200","3.6241","0.2259"
"34.4000","3.6309","0.2265"
"34.4800","3.6376","0.2263"
"34.5600","3.6442","0.2265"
"34.6400","3.6507","0.2274"
"34.7200","3.6574","0.2273"
"34.8000","3.6642","0.2277"
"34.8800","3.6709","0.2284"
"34.9600","3.6776","0.2287"
"35.0400","3.6841","0.2290"
"35.1200","3.6909","0.2294"
"35.2000","3.6975","0.2299"
"35.2800","3.7041","0.2299"
"35.3600","3.7108","0.2306"
"35.4400","3.7175","0.2307"
"35.5200","3.7242","0.2310"
"35.6000","3.7308","0.2318"
"35.6800","3.7376","0.2319"
"35.7600","3.7442","0.2315"
"35.8400","3.7509","0.2327"
"35.9200","3.7576","0.2328"
"36.0000","3.7641","0.2333"
"36.0800","3.7709","0.2331"
"36.1600","3.7774","0.2339"
"36.2400","3.7841","0.2341"
"36.3200","3.7908","0.2343"
"36.4000","3.7976","0.2349"
"36.4800","3.8042","0.2353"
"36.5600","3.8108","0.2354"
"36.6400","3.8176","0.2357"
"36.7200","3.8241","0.2361"
"36.8000","3.8308","0.2363"
"36.8800","3.8374","0.2366"
"36.9600","3.8442","0.2369"
"37.0400","3.8509","0.2374"
"37.1200","3.8576","0.2374"
"37.2000","3.8641","0.2379"
"37.2800","3.8708","0.2382"
"37.3600","3.8776","0.2386"
"37.4400","3.8842","0.2388"
"37.5200","3.8909","0.2392"
"37.6000","3.8975","0.2394"
"37.6800","3.9042","0.2401"
"37.7600","3.9108","0.2405"
"37.8400","3.9174","0.2408"
"37.9200","3.9242","0.2408"
"38.0000","3.9308","0.2412"
"38.0800","3.9375","0.2412"
"38.1600","3.9441","0.2419"
"38.2400","3.9509","0.2423"
"38.3200","3.9576","0.2423"
"38.4000","3.9642","0.2429"
"38.4800","3.9709","0.2432"
"38.5600","3.9775","0.2437"
"38.6400","3.9842","0.2440"
"38.7200","3.9908","0.2446"
"38.8000","3.9975","0.2447"
"38.8800","4.0042","0.2447"
"38.9600","4.0110","0.2454"
"39.0400","4.0174","0.2455"
"39.1200","4.0242","0.2457"
"39.2000","4.0309","0.2458"
"39.2800","4.0375","0.2467"
"39.3600","4.0441","0.2465"
"39.4400","4.0507","0.2473"
"39.5200","4.0576","0.2472"
"39.6000","4.0642","0.2477"
"39.6800","4.0709","0.2479"
"39.7600","4.0775","0.2485"
"39.8400","4.0843","0.2485"
"39.9200","4.0908","0.2488"
"40.0000","4.0974","0.2490"
"40.0800","4.1041","0.2493"
"40.1600","4.1108","0.2496"
"40.2400","4.1176","0.2497"
"40.3200","4.1241","0.2501"
"40.4000","4.1308","0.2506"
"40.4800","4.1376","0.2507"
"40.5600","4.1442","0.2511"
"40.6400","4.1508","0.2513"
"40.7200","4.1574","0.2517"
"40.8000","4.1642","0.2519"
"40.8800","4.1708","0.2522"
"40.9600","4.1776","0.2523"
"41.0400","4.1841","0.2525"
"41.1200","4.1909","0.2531"
"41.2000","4.1976","0.2531"
"41.2800","4.2041","0.2539"
"41.3600","4.2109","0.2540"
"41.4400","4.2175","0.2540"
"41.5200","4.2242","0.2544"
"41.6000","4.2308","0.2551"
"41.6800","4.2376","0.2550"
"41.7600","4.2443","0.2557"
"41.8400","4.2509","0.2557"
"41.9200","4.2576","0.2557"
"42.0000","4.2641","0.2563"
"42.0800","4.2709","0.2567"
"42.1600","4.2774","0.2572"
"42.2400","4.2842","0.2569"
"42.3200","4.2908","0.2574"
"42.4000","4.2976","0.2577"
"42.4800","4.3042","0.2581"
"42.5600","4.3108","0.2583"
"42.6400","4.3175","0.2586"
"42.7200","4.3242","0.2587"
"42.8000","4.3309","0.2589"
"42.8800","4.3374","0.2596"
"42.9600","4.3443","0.2596"
"43.0400","4.3508","0.2600"
"43.1200","4.3575","0.2602"
"43.2000","4.3641","0.2605"
"43.2800","4.3708","0.2611"
"43.3600","4.3776","0.2612"
"43.4400","4.3841","0.2615"
"43.5200","4.3908","0.2616"
"43.6000","4.3974","0.2621"
"43.6800","4.4043","0.2620"
"43.7600","4.4108","0.2622"
"43.8400","4.4175","0.2626"
"43.9200","4.4242","0.2633"
"44.0000","4.4308","0.2635"
"44.0800","4.4375","0.2634"
"44.1600","4.4441","0.2636"
"44.2400","4.4509","0.2640"
"44.3200","4.4575","0.2647"
"44.4000","4.4642","0.2643"
"44.4800","4.4708","0.2647"
"44.5600","4.4775","0.2654"
"44.6400","4.4842","0.2652"
"44.7200","4.4907","0.2656"
"44.8000","4.4975","0.2660"
"44.8800","4.5043","0.2659"
"44.9600","4.5110","0.2666"
"45.0400","4.5175","0.2665"
"45.1200","4.5242","0.2668"
"45.2000","4.5309","0.2672"
"45.2800","4.5375","0.2673"
"45.3600","4.5441","0.2677"
"45.4400","4.5507","0.2682"
"45.5200","4.5576","0.2681"
"45.6000","4.5642","0.2687"
"45.6800","4.5709","0.2688"
"45.7600","4.5775","0.2693"
"45.8400","4.5842","0.2693"
"45.9200","4.5909","0.2696"
"46.0000","4.5974","0.2701"
"46.0800","4.6041","0.2701"
"46.1600","4.6108","0.2702"
"46.2400","4.6176","0.2705"
"46.3200","4.6241","0.2708"
"46.4000","4.6308","0.2709"
"46.4800","4.6375","0.2714"
"46.5600","4.6441","0.2716"
"46.6400","4.6508","0.2721"
"46.7200","4.6574","0.2724"
"46.8000","4.6642","0.2727"
"46.8800","4.6709","0.2729"
"46.9600","4.6776","0.2731"
"47.0400","4.6842","0.2731"
"47.1200","4.6909","0.2736"
"47.2000","4.6976","0.2738"
"47.2800","4.7041","0.2742"
"47.3600","4.7108","0.2747"
"47.4400","4.7175","0.2745"
"47.5200","4.7243","0.2750"
"47.6000","4.7308","0.2753"
"47.6800","4.7376","0.2758"
"47.7600","4.7443","0.2756"
"47.8400","4.7509","0.2763"
"47.9200","4.7576","0.2764"
"48.0000","4.7641","0.2765"
"48.0800","4.7709","0.2768"
"48.1600","4.7774","0.2769"
"48.2400","4.7842","0.2775"
"48.3200","4.7908","0.2775"
"48.4000","4.7976","0.2782"
"48.4800","4.8042","0.2782"
"48.5600","4.8108","0.2782"
"48.6400","4.8175","0.2789"
"48.7200","4.8242","0.2787"
"48.8000","4.8309","0.2795"
"48.8800","4.8374","0.2794"
"48.9600","4.8443","0.2798"
"49.0400","4.8508","0.2800"
"49.1200","4.8575","0.2798"
"49.2000","4.8641","0.2805"
"49.2800","4.8708","0.2809"
"49.3600","4.8776","0.2807"
"49.4400","4.8841","0.2806"
"49.5200","4.8908","0.2810"
"49.6000","4.8974","0.2814"
"49.6800","4.9042","0.2817"
"49.7600","4.9108","0.2820"
"49.8400","4.9174","0.2821"
"49.9200","4.9243","0.2826"
"50.0000","4.9308","0.2827"
"50.0800","4.9375","0.2830"
"50.1600","4.9442","0.2833"
"50.2400","4.9510","0.2835"
"50.3200","4.9576","0.2836"
"50.4000","4.9642","0.2840"
"50.4800","4.9709","0.2841"
"50.5600","4.9775","0.2845"
"50.6400","4.9843","0.2842"
"50.7200","4.9907","0.2846"
"50.8000","4.9975","0.2848"
"50.8800","5.0042","0.2851"
"50.9600","5.0110","0.2855"
"51.0400","5.0175","0.2855"
"51.1200","5.0242","0.2858"
"51.2000","5.0309","0.2863"
"51.2800","5.0375","0.2862"
"51.3600","5.0441","0.2866"
"51.4400","5.0507","0.2871"
"51.5200","5.0576","0.2868"
"51.6000","5.0642","0.2873"
"51.6800","5.0709","0.2874"
"51.7600","5.0774","0.2878"
"51.8400","5.0842","0.2877"
"51.9200","5.0908","0.2882"
"52.0000","5.0974","0.2882"
"52.0800","5.1041","0.2882"
"52.1600","5.1109","0.2886"
"52.2400","5.1176","0.2893"
"52.3200","5.1241","0.2892"
"52.4000","5.1309","0.2896"
"52.4800","5.1376","0.2897"
"52.5600","5.1442","0.2896"
"52.6400","5.1508","0.2903"
"52.7200","5.1574","0.2903"
"52.8000","5.1641","0.2904"
"52.8800","5.1708","0.2903"
"52.9600","5.1774","0.2907"
"53.0400","5.1841","0.2905"
"53.1200","5.1909","0.2913"
"53.2000","5.1976","0.2914"
"53.2800","5.2041","0.2918"
"53.3600","5.2109","0.2916"
"53.4400","5.2175","0.2919"
"53.5200","5.2243","0.2914"
"53.6000","5.2308","0.2922"
"53.6800","5.2376","0.2926"
"53.7600","5.2443","0.2926"
"53.8400","5.2509","0.2930"
"53.9200","5.2576","0.2928"
"54.0000","5.2641","0.2934"
"54.0800","5.2709","0.2935"
"54.1600","5.2775","0.2940"
"54.2400","5.2843","0.2938"
"54.3200","5.2908","0.2936"
"54.4000","5.2976","0.2946"
"54.4800","5.3041","0.2946"
"54.5600","5.3108","0.2951"
"54.6400","5.3175","0.2951"
"54.7200","5.3242","0.2952"
"54.8000","5.3309","0.2956"
"54.8800","5.3374","0.2959"
"54.9600","5.3442","0.2961"
"55.0400","5.3508","0.2965"
"55.1200","5.3575","0.2963"
"55.2000","5.3641","0.2964"
"55.2800","5.3708","0.2971"
"55.3600","5.3775","0.2968"
"55.4400","5.3841","0.2973"
"55.5200","5.3909","0.2974"
"55.6000","5.3976","0.2973"
"55.6800","5.4043","0.2978"
"55.7600","5.4108","0.2982"
"55.8400","5.4174","0.2978"
"55.9200","5.4241","0.2980"
"56.0000","5.4308","0.2986"
"56.0800","5.4374","0.2988"
"56.1600","5.4441","0.2989"
"56.2400","5.4509","0.2996"
"56.3200","5.4576","0.2995"
"56.4000","5.4642","0.2994"
"56.4800","5.4708","0.2998"
"56.5600","5.4776","0.3004"
"56.6400","5.4843","0.2998"
"56.7200","5.4908","0.3004"
"56.8000","5.4975","0.3007"
"56.8800","5.5043","0.3010"
"56.9600","5.5110","0.3013"
"57.0400","5.5175","0.3010"
"57.1200","5.5242","0.3014"
"57.2000","5.5309","0.3020"
"57.2800","5.5375","0.3015"
"57.3600","5.5441","0.3018"
"57.4400","5.5507","0.3024"
"57.5200","5.5576","0.3020"
"57.6000","5.5642","0.3025"
"57.6800","5.5709","0.3027"
"57.7600","5.5774","0.3032"
"57.8400","5.5842","0.3031"
"57.9200","5.5909","0.3031"
"58.0000","5.5974","0.3034"
"58.0800","5.6041","0.3035"
"58.1600","5.6108","0.3044"
"58.2400","5.6175","0.3043"
"58.3200","5.6241","0.3045"
"58.4000","5.6309","0.3045"
"58.4800","5.6376","0.3050"
"58.5600","5.6443","0.3053"
"58.6400","5.6508","0.3054"
"58.7200","5.6574","0.3055"
"58.8000","5.6642","0.3055"
"58.8800","5.6709","0.3061"
"58.9600","5.6776","0.3064"
"59.0400","5.6842","0.3061"
"59.1200","5.6909","0.3066"
"59.2000","5.6976","0.3066"
"59.2800","5.7041","0.3069"
"59.3600","5.7108","0.3074"
"59.4400","5.7175","0.3074"
"59.5200","5.7243","0.3072"
"59.6000","5.7308","0.3079"
"59.6800","5.7376","0.3080"
"59.7600","5.7443","0.3083"
"59.8400","5.7509","0.3086"
"59.9200","5.7575","0.3086"
"60.0000","5.7641","0.3091"
"60.0800","5.7709","0.3090"
"60.1600","5.7774","0.3095"
"60.2400","5.7842","0.3092"
"60.3200","5.7908","0.3098"
"60.4000","5.7976","0.3097"
"60.4800","5.8042","0.3101"
"60.5600","5.8108","0.3103"
"60.6400","5.8176","0.3110"
"60.7200","5.8241","0.3104"
"60.8000","5.8309","0.3108"
"60.8800","5.8374","0.3115"
"60.9600","5.8443","0.3117"
"61.0400","5.8509","0.3118"
"61.1200","5.8576","0.3117"
"61.2000","5.8641","0.3116"
"61.2800","5.8708","0.3125"
"61.3600","5.8775","0.3124"
"61.4400","5.8841","0.3122"
"61.5200","5.8908","0.3126"
"61.6000","5.8975","0.3129"
"61.6800","5.9043","0.3133"
"61.7600","5.9108","0.3136"
"61.8400","5.9175","0.3135"
"61.9200","5.9242","0.3135"
"62.0000","5.9308","0.3139"
"62.0800","5.9375","0.3139"
"62.1600","5.9441","0.3145"
"62.2400","5.9509","0.3144"
"62.3200","5.9576","0.3146"
"62.4000","5.9642","0.3147"
"62.4800","5.9709","0.3147"
"62.5600","5.9774","0.3156"
"62.6400","5.9842","0.3157"
"62.7200","5.9907","0.3152"
"62.8000","5.9975","0.3160"
"62.8800","6.0043","0.3160"
"62.9600","6.0111","0.3165"
"63.0400","6.0175","0.3164"
"63.1200","6.0242","0.3163"
"63.2000","6.0309","0.3169"
"63.2800","6.0374","0.3168"
"63.3600","6.0441","0.3169"
"63.4400","6.0507","0.3171"
"63.5200","6.0576","0.3173"
"63.6000","6.0641","0.3176"
"63.6800","6.0709","0.3182"
"63.7600","6.0774","0.3179"
"63.8400","6.0843","0.3181"
"63.9200","6.0908","0.3181"
"64.0000","6.0974","0.3185"
"64.0800","6.1041","0.3183"
"64.1600","6.1108","0.3190"
"64.2400","6.1176","0.3190"
"64.3200","6.1242","0.3195"
"64.4000","6.1309","0.3195"
"64.4800","6.1376","0.3194"
"64.5600","6.1442","0.3194"
"64.6400","6.1508","0.3202"
"64.7200","6.1574","0.3201"
"64.8000","6.1642","0.3204"
"64.8800","6.1708","0.3203"
"64.9600","6.1776","0.3207"
"65.0400","6.1842","0.3204"
"65.1200","6.1909","0.3210"
"65.2000","6.1976","0.3213"
"65.2800","6.2041","0.3214"
"65.3600","6.2108","0.3219"
"65.4400","6.2175","0.3217"
"65.5200","6.2242","0.3219"
"65.6000","6.2308","0.3219"
"65.6800","6.2376","0.3221"
"65.7600","6.2443","0.3222"
"65.8400","6.2509","0.3224"
"65.9200","6.2576","0.3224"
"66.0000","6.2641","0.3229"
"66.0800","6.2709","0.3227"
"66.1600","6.2774","0.3229"
"66.2400","6.2842","0.3230"
"66.3200","6.2908","0.3231"
"66.4000","6.2976","0.3233"
"66.4800","6.3041","0.3235"
"66.5600","6.3108","0.3237"
"66.6400","6.3176","0.3238"
"66.7200","6.3241","0.3239"
"66.8000","6.3309","0.3239"
"66.8800","6.3374","0.3243"
"66.9600","6.3443","0.3243"
"67.0400","6.3508","0.3248"
"67.1200","6.3575","0.3248"
"67.2000","6.3641","0.3251"
"67.2800","6.3708","0.3250"
"67.3600","6.3775","0.3256"
"67.4400","6.3841","0.3250"
"67.5200","6.3909","0.3256"
"67.6000","6.3976","0.3257"
"67.6800","6.4043","0.3258"
"67.7600","6.4108","0.3258"
"67.8400","6.4174","0.3259"
"67.9200","6.4241","0.3263"
"68.0000","6.4308","0.3266"
"68.0800","6.4374","0.3267"
"68.1600","6.4441","0.3270"
"68.2400","6.4509","0.3268"
"68.3200","6.4576","0.3268"
"68.4000","6.4642","0.3272"
"68.4800","6.4709","0.3271"
"68.5600","6.4775","0.3277"
"68.6400","6.4843","0.3275"
"68.7200","6.4908","0.3275"
"68.8000","6.4976","0.3281"
"68.8800","6.5043","0.3280"
"68.9600","6.5110","0.3281"
"69.0400","6.5175","0.3279"
"69.1200","6.5242","0.3280"
"69.2000","6.5309","0.3283"
"69.2800","6.5375","0.3287"
"69.3600","6.5441","0.3287"
"69.4400","6.5507","0.3289"
"69.5200","6.5576","0.3288"
"69.6000","6.5642","0.3288"
"69.6800","6.5709","0.3288"
"69.7600","6.5775","0.3291"
"69.8400","6.5843","0.3289"
"69.9200","6.5909","0.3294"
"70.0000","6.5974","0.3294"
"70.0800","6.6041","0.3291"
"70.1600","6.6108","0.3298"
"70.2400","6.6176","0.3296"
"70.3200","6.6241","0.3297"
"70.4000","6.6309","0.3300"
"70.4800","6.6376","0.3303"
"70.5600","6.6442","0.3297"
"70.6400","6.6507","0.3302"
"70.7200","6.6574","0.3307"
"70.8000","6.6642","0.3304"
"70.8800","6.6708","0.3310"
"70.9600","6.6775","0.3308"
"71.0400","6.6842","0.3307"
"71.1200","6.6909","0.3312"
"71.2000","6.6976","0.3311"
"71.2800","6.7041","0.3315"
"71.3600","6.7108","0.3317"
"71.4400","6.7175","0.3318"
"71.5200","6.7242","0.3317"
"71.6000","6.7308","0.3321"
"71.6800","6.7376","0.3322"
"71.7600","6.7442","0.3322"
"71.8400","6.7509","0.3328"
"71.9200","6.7576","0.3325"
"72.0000","6.7641","0.3328"
"72.0800","6.7709","0.3328"
"72.1600","6.7774","0.3332"
"72.2400","6.7842","0.3328"
"72.3200","6.7908","0.3331"
"72.4000","6.7976","0.3333"
"72.4800","6.8042","0.3335"
"72.5600","6.8108","0.3336"
"72.6400","6.8176","0.3335"
"72.7200","6.8242","0.3337"
"72.8000","6.8309","0.3332"
"72.8800","6.8374","0.3340"
"72.9600","6.8443","0.3341"
"73.0400","6.8509","0.3343"
"73.1200","6.8576","0.3340"
"73.2000","6.8641","0.3345"
"73.2800","6.8708","0.3348"
"73.3600","6.8775","0.3347"
"73.4400","6.8841","0.3346"
"73.5200","6.8908","0.3353"
"73.6000","6.8975","0.3351"
"73.6800","6.9043","0.3352"
"73.7600","6.9108","0.3353"
"73.8400","6.9174","0.3352"
"73.9200","6.9242","0.3358"
"74.0000","6.9308","0.3358"
"74.0800","6.9375","0.3359"
"74.1600","6.9441","0.3360"
"74.2400","6.9509","0.3364"
"74.3200","6.9575","0.3363"
"74.4000","6.9641","0.3369"
"74.4800","6.9708","0.3365"
"74.5600","6.9775","0.3368"
"74.6400","6.9842","0.3371"
"74.7200","6.9907","0.3370"
"74.8000","6.9975","0.3370"
"74.8800","7.0043","0.3372"
"74.9600","7.0111","0.3373"
"75.0400","7.0175","0.3374"
"75.1200","7.0242","0.3379"
"75.2000","7.0309","0.3377"
"75.2800","7.0375","0.3375"
"75.3600","7.0441","0.3380"
"75.4400","7.0507","0.3383"
"75.5200","7.0576","0.3384"
"75.6000","7.0642","0.3384"
"75.6800","7.0709","0.3385"
"75.7600","7.0775","0.3389"
"75.8400","7.0842","0.3391"
"75.9200","7.0909","0.3389"
"76.0000","7.0974","0.3393"
"76.0800","7.1041","0.3389"
"76.1600","7.1108","0.3390"
"76.2400","7.1176","0.3396"
"76.3200","7.1241","0.3397"
"76.4000","7.1309","0.3398"
"76.4800","7.1376","0.3401"
"76.5600","7.1442","0.3398"
"76.6400","7.1508","0.3401"
"76.7200","7.1574","0.3408"
"76.8000","7.1642","0.3399"
"76.8800","7.1708","0.3408"
"76.9600","7.1775","0.3407"
"77.0400","7.1841","0.3404"
"77.1200","7.1909","0.3409"
"77.2000","7.1976","0.3411"
"77.2800","7.2041","0.3410"
"77.3600","7.2108","0.3411"
"77.4400","7.2175","0.3414"
"77.5200","7.2243","0.3413"
"77.6000","7.2308","0.3416"
"77.6800","7.2376","0.3415"
"77.7600","7.2443","0.3415"
"77.8400","7.2509","0.3416"
"77.9200","7.2576","0.3417"
"78.0000","7.2641","0.3422"
"78.0800","7.2709","0.3421"
"78.1600","7.2774","0.3424"
"78.2400","7.2842","0.3419"
"78.3200","7.2908","0.3422"
"78.4000","7.2976","0.3429"
"78.4800","7.3042","0.3432"
"78.5600","7.3108","0.3430"
"78.6400","7.3175","0.3431"
"78.7200","7.3241","0.3431"
"78.8000","7.3309","0.3433"
"78.8800","7.3374","0.3435"
"78.9600","7.3442","0.3433"
"79.0400","7.3508","0.3440"
"79.1200","7.3575","0.3436"
"79.2000","7.3641","0.3437"
"79.2800","7.3708","0.3438"
"79.3600","7.3776","0.3441"
"79.4400","7.3841","0.3446"
"79.5200","7.3909","0.3443"
"79.6000","7.3975","0.3445"
"79.6800","7.4043","0.3445"
"79.7600","7.4108","0.3448"
"79.8400","7.4174","0.3448"
"79.9200","7.4241","0.3450"
"80.0000","7.4308","0.3453"
"80.0800","7.4374","0.3453"
"80.1600","7.4441","0.3454"
"80.2400","7.4509","0.3457"
"80.3200","7.4576","0.3458"
"80.4000","7.4642","0.3456"
"80.4800","7.4709","0.3462"
"80.5600","7.4775","0.3463"
"80.6400","7.4843","0.3463"
"80.7200","7.4908","0.3466"
"80.8000","7.4975","0.3467"
"80.8800","7.5042","0.3468"
"80.9600","7.5111","0.3469"
"81.0400","7.5175","0.3469"
"81.1200","7.5242","0.3474"
"81.2000","7.5309","0.3472"
"81.2800","7.5375","0.3470"
"81.3600","7.5441","0.3472"
"81.4400","7.5507","0.3476"
"81.5200","7.5576","0.3477"
"81.6000","7.5642","0.3477"
"81.6800","7.5709","0.3475"
"81.7600","7.5775","0.3476"
"81.8400","7.5842","0.3478"
"81.9200","7.5908","0.3482"
"82.0000","7.5974","0.3483"
"82.0800","7.6041","0.3483"
"82.1600","7.6108","0.3483"
"82.2400","7.6176","0.3484"
"82.3200","7.6241","0.3487"
"82.4000","7.6309","0.3486"
"82.4800","7.6376","0.3489"
"82.5600","7.6442","0.3490"
"82.6400","7.6508","0.3491"
"82.7200","7.6574","0.3492"
"82.8000","7.6642","0.3493"
"82.8800","7.6708","0.3493"
"82.9600","7.6775","0.3487"
"83.0400","7.6841","0.3485"
"83.1200","7.6909","0.3491"
"83.2000","7.6976","0.3491"
"83.2800","7.7041","0.3491"
"83.3600","7.7108","0.3492"
"83.4400","7.7175","0.3492"
"83.5200","7.7243","0.3493"
"83.6000","7.7308","0.3494"
"83.6800","7.7376","0.3500"
"83.7600","7.7443","0.3494"
"83.8400","7.7509","0.3498"
"83.9200","7.7576","0.3497"
"84.0000","7.7641","0.3502"
"84.0800","7.7709","0.3503"
"84.1600","7.7774","0.3505"
"84.2400","7.7843","0.3503"
"84.3200","7.7908","0.3507"
"84.4000","7.7976","0.3505"
"84.4800","7.8041","0.3510"
"84.5600","7.8108","0.3506"
"84.6400","7.8175","0.3508"
"84.7200","7.8242","0.3507"
"84.8000","7.8309","0.3510"
"84.8800","7.8374","0.3510"
"84.9600","7.8443","0.3510"
"85.0400","7.8508","0.3515"
"85.1200","7.8575","0.3513"
"85.2000","7.8641","0.3515"
"85.2800","7.8708","0.3518"
"85.3600","7.8775","0.3517"
"85.4400","7.8841","0.3514"
"85.5200","7.8908","0.3520"
"85.6000","7.8975","0.3522"
"85.6800","7.9043","0.3522"
"85.7600","7.9108","0.3526"
"85.8400","7.9174","0.3522"
"85.9200","7.9242","0.3525"
"86.0000","7.9308","0.3529"
"86.0800","7.9374","0.3525"
"86.1600","7.9441","0.3529"
"86.2400","7.9509","0.3531"
"86.3200","7.9576","0.3528"
"86.4000","7.9642","0.3535"
"86.4800","7.9708","0.3530"
"86.5600","7.9774","0.3538"
"86.6400","7.9842","0.3534"
"86.7200","7.9907","0.3538"
"86.8000","7.9975","0.3536"
"86.8800","8.0042","0.3537"
"86.9600","8.0110","0.3539"
"87.0400","8.0175","0.3540"
"87.1200","8.0242","0.3543"
"87.2000","8.0309","0.3541"
"87.2800","8.0374","0.3540"
"87.3600","8.0441","0.3544"
"87.4400","8.0507","0.3550"
"87.5200","8.0576","0.3545"
"87.6000","8.0642","0.3546"
"87.6800","8.0709","0.3548"
"87.7600","8.0774","0.3544"
"87.8400","8.0843","0.3550"
"87.9200","8.0908","0.3552"
"88.0000","8.0974","0.3551"
"88.0800","8.1041","0.3548"
"88.1600","8.1108","0.3553"
"88.2400","8.1176","0.3554"
"88.3200","8.1241","0.3555"
"88.4000","8.1309","0.3556"
"88.4800","8.1376","0.3558"
"88.5600","8.1442","0.3559"
"88.6400","8.1508","0.3560"
"88.7200","8.1574","0.3562"
"88.8000","8.1641","0.3559"
"88.8800","8.1708","0.3563"
"88.9600","8.1776","0.3563"
"89.0400","8.1842","0.3562"
"89.1200","8.1909","0.3565"
"89.2000","8.1976","0.3570"
"89.2800","8.2041","0.3563"
"89.3600","8.2108","0.3569"
"89.4400","8.2175","0.3567"
"89.5200","8.2243","0.3569"
"89.6000","8.2308","0.3567"
"89.6800","8.2376","0.3572"
"89.7600","8.2443","0.3569"
"89.8400","8.2509","0.3575"
"89.9200","8.2576","0.3569"
"90.0000","8.2641","0.3573"
"90.0800","8.2709","0.3577"
"90.1600","8.2774","0.3577"
"90.2400","8.2842","0.3576"
"90.3200","8.2908","0.3579"
"90.4000","8.2976","0.3579"
"90.4800","8.3041","0.3581"
"90.5600","8.3108","0.3581"
"90.6400","8.3176","0.3581"
"90.7200","8.3242","0.3581"
"90.8000","8.3308","0.3584"
"90.8800","8.3374","0.3584"
"90.9600","8.3442","0.3581"
"91.0400","8.3508","0.3587"
"91.1200","8.3575","0.3587"
"91.2000","8.3642","0.3585"
"91.2800","8.3708","0.3591"
"91.3600","8.3776","0.3589"
"91.4400","8.3841","0.3588"
"91.5200","8.3908","0.3592"
"91.6000","8.3975","0.3589"
"91.6800","8.4043","0.3592"
"91.7600","8.4108","0.3591"
"91.8400","8.4174","0.3594"
"91.9200","8.4242","0.3597"
"92.0000","8.4308","0.3597"
"92.0800","8.4375","0.3597"
"92.1600","8.4441","0.3595"
"92.2400","8.4509","0.3601"
"92.3200","8.4576","0.3598"
"92.4000","8.4642","0.3595"
"92.4800","8.4708","0.3597"
"92.5600","8.4774","0.3599"
"92.6400","8.4843","0.3599"
"92.7200","8.4908","0.3603"
"92.8000","8.4976","0.3603"
"92.8800","8.5042","0.3603"
"92.9600","8.5110","0.3599"
"93.0400","8.5175","0.3600"
"93.1200","8.5242","0.3601"
"93.2000","8.5309","0.3603"
"93.2800","8.5375","0.3606"
"93.3600","8.5441","0.3606"
"93.4400","8.5506","0.3609"
"93.5200","8.5576","0.3607"
"93.6000","8.5642","0.3609"
"93.6800","8.5709","0.3608"
"93.7600","8.5775","0.3611"
"93.8400","8.5843","0.3609"
"93.9200","8.5909","0.3610"
"94.0000","8.5974","0.3611"
"94.0800","8.6041","0.3609"
"94.1600","8.6108","0.3612"
"94.2400","8.6176","0.3614"
"94.3200","8.6241","0.3615"
"94.4000","8.6309","0.3615"
"94.4800","8.6376","0.3615"
"94.5600","8.6442","0.3614"
"94.6400","8.6508","0.3615"
"94.7200","8.6574","0.3613"
"94.8000","8.6642","0.3614"
"94.8800","8.6709","0.3620"
"94.9600","8.6776","0.3616"
"95.0400","8.6841","0.3618"
"95.1200","8.6909","0.3618"
"95.2000","8.6976","0.3617"
"95.2800","8.7041","0.3617"
"95.3600","8.7108","0.3615"
"95.4400","8.7175","0.3615"
"95.5200","8.7242","0.3616"
"95.6000","8.7308","0.3622"
"95.6800","8.7376","0.3620"
"95.7600","8.7442","0.3619"
"95.8400","8.7509","0.3622"
"95.9200","8.7576","0.3618"
"96.0000","8.7641","0.3621"
"96.0800","8.7709","0.3620"
"96.1600","8.7774","0.3625"
"96.2400","8.7842","0.3619"
"96.3200","8.7908","0.3623"
"96.4000","8.7976","0.3617"
"96.4800","8.8042","0.3620"
"96.5600","8.8108","0.3617"
"96.6400","8.8176","0.3616"
"96.7200","8.8242","0.3621"
"96.8000","8.8308","0.3618"
"96.8800","8.8374","0.3615"
"96.9600","8.8443","0.3613"
"97.0400","8.8509","0.3616"
"97.1200","8.8576","0.3617"
"97.2000","8.8641","0.3611"
"97.2800","8.8708","0.3615"
"97.3600","8.8774","0.3619"
"97.4400","8.8841","0.3612"
"97.5200","8.8909","0.3615"
"97.6000","8.8976","0.3616"
"97.6800","8.9043","0.3612"
"97.7600","8.9108","0.3612"
"97.8400","8.9175","0.3615"
"97.9200","8.9242","0.3612"
"98.0000","8.9308","0.3611"
"98.0800","8.9374","0.3608"
"98.1600","8.9441","0.3608"
"98.2400","8.9509","0.3606"
"98.3200","8.9576","0.3605"
"98.4000","8.9642","0.3604"
"98.4800","8.9709","0.3602"
"98.5600","8.9774","0.3607"
"98.6400","8.9843","0.3600"
"98.7200","8.9908","0.3600"
"98.8000","8.9975","0.3600"
"98.8800","9.0042","0.3595"
"98.9600","9.0109","0.3598"
"99.0400","9.0175","0.3594"
"99.1200","9.0242","0.3596"
"99.2000","9.0309","0.3593"
"99.2800","9.0375","0.3591"
"99.3600","9.0441","0.3588"
"99.4400","9.0507","0.3592"
"99.5200","9.0576","0.3584"
"99.6000","9.0642","0.3584"
"99.6800","9.0709","0.3582"
"99.7600","9.0775","0.3585"
"99.8400","9.0843","0.3580"
"99.9200","9.0909","0.3578"
"100.0000","9.0974","0.3568"
"100.0800","9.1041","0.3518"
"100.1600","9.1108","0.3433"
"100.2400","9.1177","0.2350"
"100.3200","9.1243","-0.0055"
"100.4000","9.1309","0.0016"
"100.4800","9.1376","0.0017"
"100.5600","9.1442","0.0013"
"100.6400","9.1507","0.0018"
"100.7200","9.1574","0.0017"
"100.8000","9.1642","0.0014"
"100.8800","9.1708","0.0016"
"100.9600","9.1776","0.0020"
"101.0400","9.1842","0.0017"
"101.1200","9.1909","0.0020"
"101.2000","9.1976","0.0022"
"101.2800","9.2041","0.0017"
"101.3600","9.2108","0.0020"
"101.4400","9.2175","0.0019"
"101.5200","9.2242","0.0018"
"101.6000","9.2308","0.0022"
"101.6800","9.2375","0.0018"
"101.7600","9.2443","0.0021"
"101.8400","9.2509","0.0021"
"101.9200","9.2576","0.0020"
"102.0000","9.2641","0.0022"
"102.0800","9.2709","0.0022"
"102.1600","9.2774","0.0023"
"102.2400","9.2842","0.0019"
"102.3200","9.2908","0.0023"
"102.4000","9.2976","0.0020"
"102.4800","9.3042","0.0023"
"102.5600","9.3108","0.0019"
"102.6400","9.3175","0.0023"
"102.7200","9.3241","0.0020"
"102.8000","9.3308","0.0025"
"102.8800","9.3374","0.0023"
"102.9600","9.3442","0.0021"
"103.0400","9.3509","0.0021"
"103.1200","9.3576","0.0023"
"103.2000","9.3641","0.0020"
"103.2800","9.3708","0.0023"
"103.3600","9.3776","0.0026"
"103.4400","9.3842","0.0021"
"103.5200","9.3909","0.0022"
"103.6000","9.3975","0.0024"
"103.6800","9.4043","0.0025"
"103.7600","9.4108","0.0025"
"103.8400","9.4174","0.0024"
"103.9200","9.4242","0.0022"
"104.0000","9.4308","0.0027"
"104.0800","9.4375","0.0021"
"104.1600","9.4441","0.0026"
"104.2400","9.4509","0.0028"
"104.3200","9.4576","0.0025"
"104.4000","9.4642","0.0026"
"104.4800","9.4708","0.0022"