File: flexural/ES100_Trevor_Flexural_Data_6_1.csv
Specimen text inputs : Specimen text input  1,,""

Results Table 1
,Specimen text input  1
"6","f0_f2"

Results Table 2

Time,Displacement,Force
(s),(mm),(kN)
"0.0000","1.3860","0.0202"
"0.1000","1.3951","0.0218"
"0.2000","1.4019","0.0219"
"0.3000","1.4098","0.0231"
"0.4000","1.4181","0.0235"
"0.5000","1.4264","0.0244"
"0.6000","1.4348","0.0250"
"0.7000","1.4431","0.0258"
"0.8000","1.4516","0.0263"
"0.9000","1.4599","0.0273"
"1.0000","1.4682","0.0281"
"1.1000","1.4766","0.0287"
"1.2000","1.4849","0.0297"
"1.3000","1.4933","0.0302"
"1.4000","1.5016","0.0310"
"1.5000","1.5099","0.0316"
"1.6000","1.5182","0.0321"
"1.7000","1.5264","0.0326"
"1.8000","1.5349","0.0339"
"1.9000","1.5432","0.0344"
"2.0000","1.5514","0.0351"
"2.1000","1.5599","0.0360"
"2.2000","1.5682","0.0364"
"2.3000","1.5765","0.0371"
"2.4000","1.5848","0.0380"
"2.5000","1.5933","0.0388"
"2.6000","1.6015","0.0393"
"2.7000","1.6098","0.0403"
"2.8000","1.6182","0.0410"
"2.9000","1.6265","0.0418"
"3.0000","1.6348","0.0424"
"3.1000","1.6432","0.0432"
"3.2000","1.6514","0.0439"
"3.3000","1.6598","0.0447"
"3.4000","1.6681","0.0455"
"3.5000","1.6765","0.0458"
"3.6000","1.6848","0.0468"
"3.7000","1.6931","0.0470"
"3.8000","1.7016","0.0482"
"3.9000","1.7099","0.0486"
"4.0000","1.7182","0.0497"
"4.1000","1.7266","0.0503"
"4.2000","1.7349","0.0510"
"4.3000","1.7433","0.0523"
"4.4000","1.7516","0.0525"
"4.5000","1.7600","0.0534"
"4.6000","1.7682","0.0539"
"4.7000","1.7764","0.0549"
"4.8000","1.7849","0.0552"
"4.9000","1.7932","0.0562"
"5.0000","1.8014","0.0568"
"5.1000","1.8099","0.0577"
"5.2000","1.8182","0.0584"
"5.3000","1.8265","0.0588"
"5.4000","1.8349","0.0599"
"5.5000","1.8432","0.0604"
"5.6000","1.8515","0.0611"
"5.7000","1.8598","0.0617"
"5.8000","1.8683","0.0627"
"5.9000","1.8765","0.0637"
"6.0000","1.8848","0.0643"
"6.1000","1.8932","0.0649"
"6.2000","1.9014","0.0656"
"6.3000","1.9098","0.0665"
"6.4000","1.9181","0.0674"
"6.5000","1.9265","0.0681"
"6.6000","1.9348","0.0685"
"6.7000","1.9431","0.0696"
"6.8000","1.9516","0.0704"
"6.9000","1.9599","0.0710"
"7.0000","1.9681","0.0714"
"7.1000","1.9766","0.0727"
"7.2000","1.9849","0.0728"
"7.3000","1.9933","0.0737"
"7.4000","2.0016","0.0745"
"7.5000","2.0100","0.0753"
"7.6000","2.0182","0.0759"
"7.7000","2.0264","0.0766"
"7.8000","2.0349","0.0775"
"7.9000","2.0431","0.0781"
"8.0000","2.0514","0.0791"
"8.1000","2.0599","0.0800"
"8.2000","2.0682","0.0802"
"8.3000","2.0765","0.0810"
"8.4000","2.0849","0.0821"
"8.5000","2.0932","0.0819"
"8.6000","2.1015","0.0831"
"8.7000","2.1098","0.0840"
"8.8000","2.1183","0.0847"
"8.9000","2.1266","0.0852"
"9.0000","2.1348","0.0863"
"9.1000","2.1432","0.0866"
"9.2000","2.1514","0.0874"
"9.3000","2.1598","0.0882"
"9.4000","2.1681","0.0887"
"9.5000","2.1765","0.0895"
"9.6000","2.1848","0.0903"
"9.7000","2.1931","0.0910"
"9.8000","2.2016","0.0917"
"9.9000","2.2099","0.0924"
"10.0000","2.2182","0.0929"
"10.1000","2.2266","0.0938"
"10.2000","2.2348","0.0944"
"10.3000","2.2433","0.0951"
"10.4000","2.2516","0.0963"
"10.5000","2.2600","0.0968"
"10.6000","2.2682","0.0970"
"10.7000","2.2764","0.0981"
"10.8000","2.2849","0.0984"
"10.9000","2.2932","0.0994"
"11.0000","2.3014","0.1001"
"11.1000","2.3099","0.1008"
"11.2000","2.3182","0.1015"
"11.3000","2.3265","0.1018"
"11.4000","2.3349","0.1029"
"11.5000","2.3433","0.1033"
"11.6000","2.3515","0.1044"
"11.7000","2.3598","0.1053"
"11.8000","2.3683","0.1053"
"11.9000","2.3766","0.1063"
"12.0000","2.3848","0.1071"
"12.1000","2.3932","0.1070"
"12.2000","2.4014","0.1080"
"12.3000","2.4098","0.1087"
"12.4000","2.4181","0.1094"
"12.5000","2.4265","0.1099"
"12.6000","2.4348","0.1111"
"12.7000","2.4431","0.1114"
"12.8000","2.4516","0.1121"
"12.9000","2.4599","0.1131"
"13.0000","2.4682","0.1135"
"13.1000","2.4766","0.1145"
"13.2000","2.4849","0.1149"
"13.3000","2.4932","0.1156"
"13.4000","2.5016","0.1163"
"13.5000","2.5100","0.1170"
"13.6000","2.5182","0.1173"
"13.7000","2.5264","0.1181"
"13.8000","2.5349","0.1186"
"13.9000","2.5431","0.1194"
"14.0000","2.5514","0.1198"
"14.1000","2.5599","0.1208"
"14.2000","2.5682","0.1211"
"14.3000","2.5765","0.1217"
"14.4000","2.5848","0.1226"
"14.5000","2.5932","0.1229"
"14.6000","2.6015","0.1237"
"14.7000","2.6098","0.1242"
"14.8000","2.6183","0.1246"
"14.9000","2.6265","0.1258"
"15.0000","2.6348","0.1265"
"15.1000","2.6432","0.1267"
"15.2000","2.6514","0.1275"
"15.3000","2.6598","0.1285"
"15.4000","2.6681","0.1284"
"15.5000","2.6765","0.1292"
"15.6000","2.6848","0.1302"
"15.7000","2.6931","0.1308"
"15.8000","2.7016","0.1314"
"15.9000","2.7099","0.1321"
"16.0000","2.7182","0.1323"
"16.1000","2.7266","0.1332"
"16.2000","2.7349","0.1337"
"16.3000","2.7433","0.1344"
"16.4000","2.7516","0.1346"
"16.5000","2.7599","0.1357"
"16.6000","2.7682","0.1359"
"16.7000","2.7764","0.1368"
"16.8000","2.7849","0.1378"
"16.9000","2.7931","0.1376"
"17.0000","2.8014","0.1387"
"17.1000","2.8099","0.1389"
"17.2000","2.8182","0.1395"
"17.3000","2.8265","0.1401"
"17.4000","2.8349","0.1410"
"17.5000","2.8432","0.1415"
"17.6000","2.8515","0.1424"
"17.7000","2.8597","0.1427"
"17.8000","2.8683","0.1432"
"17.9000","2.8765","0.1436"
"18.0000","2.8848","0.1447"
"18.1000","2.8932","0.1448"
"18.2000","2.9014","0.1454"
"18.3000","2.9098","0.1464"
"18.4000","2.9181","0.1469"
"18.5000","2.9265","0.1471"
"18.6000","2.9348","0.1478"
"18.7000","2.9431","0.1489"
"18.8000","2.9516","0.1492"
"18.9000","2.9599","0.1496"
"19.0000","2.9682","0.1500"
"19.1000","2.9766","0.1509"
"19.2000","2.9849","0.1516"
"19.3000","2.9933","0.1520"
"19.4000","3.0016","0.1527"
"19.5000","3.0100","0.1527"
"19.6000","3.0182","0.1536"
"19.7000","3.0263","0.1545"
"19.8000","3.0349","0.1554"
"19.9000","3.0431","0.1550"
"20.0000","3.0514","0.1560"
"20.1000","3.0599","0.1565"
"20.2000","3.0682","0.1573"
"20.3000","3.0765","0.1577"
"20.4000","3.0849","0.1582"
"20.5000","3.0933","0.1588"
"20.6000","3.1015","0.1593"
"20.7000","3.1098","0.1599"
"20.8000","3.1182","0.1608"
"20.9000","3.1265","0.1614"
"21.0000","3.1349","0.1617"
"21.1000","3.1432","0.1621"
"21.2000","3.1514","0.1627"
"21.3000","3.1597","0.1636"
"21.4000","3.1681","0.1641"
"21.5000","3.1765","0.1646"
"21.6000","3.1848","0.1650"
"21.7000","3.1931","0.1659"
"21.8000","3.2016","0.1663"
"21.9000","3.2099","0.1667"
"22.0000","3.2182","0.1672"
"22.1000","3.2266","0.1682"
"22.2000","3.2349","0.1687"
"22.3000","3.2432","0.1690"
"22.4000","3.2515","0.1697"
"22.5000","3.2600","0.1699"
"22.6000","3.2682","0.1709"
"22.7000","3.2764","0.1714"
"22.8000","3.2849","0.1716"
"22.9000","3.2931","0.1721"
"23.0000","3.3014","0.1728"
"23.1000","3.3099","0.1734"
"23.2000","3.3182","0.1740"
"23.3000","3.3266","0.1741"
"23.4000","3.3349","0.1750"
"23.5000","3.3432","0.1751"
"23.6000","3.3515","0.1758"
"23.7000","3.3598","0.1763"
"23.8000","3.3683","0.1772"
"23.9000","3.3765","0.1774"
"24.0000","3.3848","0.1784"
"24.1000","3.3932","0.1785"
"24.2000","3.4014","0.1791"
"24.3000","3.4098","0.1798"
"24.4000","3.4181","0.1801"
"24.5000","3.4265","0.1808"
"24.6000","3.4348","0.1814"
"24.7000","3.4431","0.1819"
"24.8000","3.4516","0.1822"
"24.9000","3.4599","0.1830"
"25.0000","3.4681","0.1833"
"25.1000","3.4765","0.1839"
"25.2000","3.4849","0.1842"
"25.3000","3.4933","0.1850"
"25.4000","3.5016","0.1858"
"25.5000","3.5099","0.1860"
"25.6000","3.5182","0.1864"
"25.7000","3.5264","0.1868"
"25.8000","3.5349","0.1872"
"25.9000","3.5431","0.1878"
"26.0000","3.5514","0.1886"
"26.1000","3.5599","0.1891"
"26.2000","3.5681","0.1895"
"26.3000","3.5765","0.1901"
"26.4000","3.5849","0.1906"
"26.5000","3.5933","0.1912"
"26.6000","3.6015","0.1914"
"26.7000","3.6098","0.1918"
"26.8000","3.6183","0.1924"
"26.9000","3.6266","0.1926"
"27.0000","3.6349","0.1936"
"27.1000","3.6432","0.1938"
"27.2000","3.6514","0.1944"
"27.3000","3.6598","0.1952"
"27.4000","3.6681","0.1953"
"27.5000","3.6765","0.1960"
"27.6000","3.6848","0.1963"
"27.7000","3.6931","0.1968"
"27.8000","3.7016","0.1974"
"27.9000","3.7099","0.1980"
"28.0000","3.7182","0.1983"
"28.1000","3.7266","0.1991"
"28.2000","3.7349","0.1994"
"28.3000","3.7432","0.2003"
"28.4000","3.7515","0.2004"
"28.5000","3.7600","0.2008"
"28.6000","3.7682","0.2012"
"28.7000","3.7764","0.2019"
"28.8000","3.7848","0.2026"
"28.9000","3.7931","0.2026"
"29.0000","3.8014","0.2034"
"29.1000","3.8099","0.2040"
"29.2000","3.8182","0.2043"
"29.3000","3.8264","0.2045"
"29.4000","3.8348","0.2054"
"29.5000","3.8433","0.2054"
"29.6000","3.8515","0.2063"
"29.7000","3.8598","0.2065"
"29.8000","3.8683","0.2071"
"29.9000","3.8765","0.2075"
"30.0000","3.8849","0.2081"
"30.1000","3.8932","0.2086"
"30.2000","3.9015","0.2089"
"30.3000","3.9098","0.2096"
"30.4000","3.9181","0.2099"
"30.5000","3.9265","0.2101"
"30.6000","3.9348","0.2107"
"30.7000","3.9431","0.2111"
"30.8000","3.9516","0.2120"
"30.9000","3.9599","0.2125"
"31.0000","3.9682","0.2126"
"31.1000","3.9766","0.2136"
"31.2000","3.9849","0.2139"
"31.3000","3.9933","0.2141"
"31.4000","4.0016","0.2147"
"31.5000","4.0099","0.2148"
"31.6000","4.0182","0.2158"
"31.7000","4.0264","0.2158"
"31.8000","4.0349","0.2166"
"31.9000","4.0431","0.2166"
"32.0000","4.0514","0.2171"
"32.1000","4.0598","0.2178"
"32.2000","4.0681","0.2181"
"32.3000","4.0765","0.2184"
"32.4000","4.0849","0.2194"
"32.5000","4.0932","0.2195"
"32.6000","4.1015","0.2200"
"32.7000","4.1098","0.2204"
"32.8000","4.1183","0.2209"
"32.9000","4.1265","0.2209"
"33.0000","4.1348","0.2216"
"33.1000","4.1431","0.2220"
"33.2000","4.1514","0.2226"
"33.3000","4.1598","0.2229"
"33.4000","4.1681","0.2231"
"33.5000","4.1765","0.2238"
"33.6000","4.1848","0.2244"
"33.7000","4.1931","0.2247"
"33.8000","4.2016","0.2253"
"33.9000","4.2099","0.2257"
"34.0000","4.2182","0.2262"
"34.1000","4.2266","0.2268"
"34.2000","4.2349","0.2268"
"34.3000","4.2432","0.2273"
"34.4000","4.2516","0.2278"
"34.5000","4.2600","0.2281"
"34.6000","4.2682","0.2283"
"34.7000","4.2764","0.2288"
"34.8000","4.2849","0.2294"
"34.9000","4.2932","0.2299"
"35.0000","4.3014","0.2299"
"35.1000","4.3099","0.2306"
"35.2000","4.3181","0.2310"
"35.3000","4.3265","0.2315"
"35.4000","4.3349","0.2320"
"35.5000","4.3433","0.2325"
"35.6000","4.3515","0.2330"
"35.7000","4.3598","0.2331"
"35.8000","4.3683","0.2339"
"35.9000","4.3765","0.2336"
"36.0000","4.3848","0.2344"
"36.1000","4.3932","0.2348"
"36.2000","4.4014","0.2353"
"36.3000","4.4098","0.2360"
"36.4000","4.4181","0.2361"
"36.5000","4.4265","0.2364"
"36.6000","4.4348","0.2369"
"36.7000","4.4431","0.2372"
"36.8000","4.4516","0.2378"
"36.9000","4.4599","0.2382"
"37.0000","4.4681","0.2385"
"37.1000","4.4766","0.2392"
"37.2000","4.4849","0.2395"
"37.3000","4.4932","0.2399"
"37.4000","4.5015","0.2402"
"37.5000","4.5099","0.2405"
"37.6000","4.5182","0.2409"
"37.7000","4.5264","0.2416"
"37.8000","4.5349","0.2418"
"37.9000","4.5431","0.2422"
"38.0000","4.5514","0.2424"
"38.1000","4.5598","0.2432"
"38.2000","4.5682","0.2434"
"38.3000","4.5765","0.2437"
"38.4000","4.5849","0.2444"
"38.5000","4.5932","0.2448"
"38.6000","4.6015","0.2451"
"38.7000","4.6098","0.2452"
"38.8000","4.6183","0.2458"
"38.9000","4.6265","0.2464"
"39.0000","4.6348","0.2467"
"39.1000","4.6432","0.2470"
"39.2000","4.6514","0.2477"
"39.3000","4.6598","0.2477"
"39.4000","4.6681","0.2483"
"39.5000","4.6765","0.2484"
"39.6000","4.6848","0.2491"
"39.7000","4.6931","0.2493"
"39.8000","4.7016","0.2496"
"39.9000","4.7099","0.2502"
"40.0000","4.7182","0.2500"
"40.1000","4.7266","0.2510"
"40.2000","4.7349","0.2514"
"40.3000","4.7433","0.2515"
"40.4000","4.7516","0.2521"
"40.5000","4.7599","0.2524"
"40.6000","4.7682","0.2528"
"40.7000","4.7764","0.2533"
"40.8000","4.7849","0.2534"
"40.9000","4.7931","0.2539"
"41.0000","4.8014","0.2542"
"41.1000","4.8098","0.2545"
"41.2000","4.8181","0.2547"
"41.3000","4.8265","0.2551"
"41.4000","4.8349","0.2559"
"41.5000","4.8433","0.2560"
"41.6000","4.8515","0.2563"
"41.7000","4.8598","0.2565"
"41.8000","4.8683","0.2569"
"41.9000","4.8766","0.2572"
"42.0000","4.8849","0.2582"
"42.1000","4.8932","0.2584"
"42.2000","4.9014","0.2587"
"42.3000","4.9098","0.2589"
"42.4000","4.9181","0.2597"
"42.5000","4.9265","0.2596"
"42.6000","4.9348","0.2601"
"42.7000","4.9431","0.2607"
"42.8000","4.9516","0.2611"
"42.9000","4.9599","0.2613"
"43.0000","4.9682","0.2614"
"43.1000","4.9766","0.2623"
"43.2000","4.9849","0.2624"
"43.3000","4.9932","0.2625"
"43.4000","5.0015","0.2631"
"43.5000","5.0099","0.2635"
"43.6000","5.0182","0.2640"
"43.7000","5.0264","0.2638"
"43.8000","5.0349","0.2642"
"43.9000","5.0431","0.2648"
"44.0000","5.0514","0.2650"
"44.1000","5.0599","0.2657"
"44.2000","5.0682","0.2660"
"44.3000","5.0765","0.2663"
"44.4000","5.0848","0.2665"
"44.5000","5.0933","0.2667"
"44.6000","5.1016","0.2675"
"44.7000","5.1098","0.2675"
"44.8000","5.1183","0.2679"
"44.9000","5.1265","0.2684"
"45.0000","5.1348","0.2686"
"45.1000","5.1432","0.2691"
"45.2000","5.1514","0.2693"
"45.3000","5.1598","0.2698"
"45.4000","5.1681","0.2700"
"45.5000","5.1765","0.2703"
"45.6000","5.1848","0.2704"
"45.7000","5.1931","0.2714"
"45.8000","5.2016","0.2717"
"45.9000","5.2099","0.2723"
"46.0000","5.2182","0.2722"
"46.1000","5.2266","0.2726"
"46.2000","5.2349","0.2731"
"46.3000","5.2433","0.2733"
"46.4000","5.2516","0.2743"
"46.5000","5.2599","0.2738"
"46.6000","5.2682","0.2742"
"46.7000","5.2764","0.2749"
"46.8000","5.2849","0.2753"
"46.9000","5.2931","0.2760"
"47.0000","5.3014","0.2762"
"47.1000","5.3098","0.2765"
"47.2000","5.3182","0.2767"
"47.3000","5.3265","0.2768"
"47.4000","5.3349","0.2773"
"47.5000","5.3432","0.2775"
"47.6000","5.3515","0.2782"
"47.7000","5.3598","0.2782"
"47.8000","5.3683","0.2788"
"47.9000","5.3765","0.2792"
"48.0000","5.3848","0.2798"
"48.1000","5.3932","0.2795"
"48.2000","5.4014","0.2800"
"48.3000","5.4098","0.2804"
"48.4000","5.4181","0.2805"
"48.5000","5.4265","0.2810"
"48.6000","5.4348","0.2818"
"48.7000","5.4431","0.2821"
"48.8000","5.4516","0.2825"
"48.9000","5.4599","0.2828"
"49.0000","5.4682","0.2828"
"49.1000","5.4766","0.2836"
"49.2000","5.4849","0.2836"
"49.3000","5.4933","0.2839"
"49.4000","5.5016","0.2845"
"49.5000","5.5100","0.2847"
"49.6000","5.5182","0.2850"
"49.7000","5.5264","0.2854"
"49.8000","5.5349","0.2854"
"49.9000","5.5431","0.2859"
"50.0000","5.5514","0.2862"
"50.1000","5.5598","0.2864"
"50.2000","5.5681","0.2871"
"50.3000","5.5765","0.2876"
"50.4000","5.5848","0.2879"
"50.5000","5.5932","0.2879"
"50.6000","5.6015","0.2887"
"50.7000","5.6098","0.2885"
"50.8000","5.6182","0.2890"
"50.9000","5.6265","0.2892"
"51.0000","5.6349","0.2899"
"51.1000","5.6433","0.2902"
"51.2000","5.6514","0.2904"
"51.3000","5.6597","0.2907"
"51.4000","5.6681","0.2911"
"51.5000","5.6765","0.2913"
"51.6000","5.6849","0.2916"
"51.7000","5.6931","0.2925"
"51.8000","5.7016","0.2925"
"51.9000","5.7099","0.2923"
"52.0000","5.7182","0.2928"
"52.1000","5.7266","0.2939"
"52.2000","5.7349","0.2936"
"52.3000","5.7433","0.2940"
"52.4000","5.7515","0.2947"
"52.5000","5.7599","0.2948"
"52.6000","5.7682","0.2948"
"52.7000","5.7764","0.2954"
"52.8000","5.7849","0.2957"
"52.9000","5.7931","0.2956"
"53.0000","5.8014","0.2964"
"53.1000","5.8099","0.2969"
"53.2000","5.8182","0.2968"
"53.3000","5.8266","0.2976"
"53.4000","5.8349","0.2978"
"53.5000","5.8432","0.2979"
"53.6000","5.8516","0.2983"
"53.7000","5.8598","0.2987"
"53.8000","5.8683","0.2988"
"53.9000","5.8766","0.2993"
"54.0000","5.8848","0.2996"
"54.1000","5.8932","0.2998"
"54.2000","5.9014","0.3002"
"54.3000","5.9098","0.3007"
"54.4000","5.9181","0.3003"
"54.5000","5.9265","0.3009"
"54.6000","5.9348","0.3013"
"54.7000","5.9431","0.3018"
"54.8000","5.9516","0.3021"
"54.9000","5.9599","0.3027"
"55.0000","5.9682","0.3022"
"55.1000","5.9765","0.3027"
"55.2000","5.9849","0.3032"
"55.3000","5.9933","0.3032"
"55.4000","6.0016","0.3037"
"55.5000","6.0100","0.3040"
"55.6000","6.0182","0.3041"
"55.7000","6.0264","0.3044"
"55.8000","6.0349","0.3047"
"55.9000","6.0431","0.3052"
"56.0000","6.0514","0.3052"
"56.1000","6.0599","0.3059"
"56.2000","6.0681","0.3061"
"56.3000","6.0765","0.3064"
"56.4000","6.0848","0.3066"
"56.5000","6.0932","0.3067"
"56.6000","6.1015","0.3072"
"56.7000","6.1098","0.3071"
"56.8000","6.1182","0.3076"
"56.9000","6.1266","0.3081"
"57.0000","6.1348","0.3083"
"57.1000","6.1432","0.3083"
"57.2000","6.1514","0.3088"
"57.3000","6.1597","0.3092"
"57.4000","6.1681","0.3090"
"57.5000","6.1765","0.3099"
"57.6000","6.1848","0.3100"
"57.7000","6.1931","0.3104"
"57.8000","6.2016","0.3109"
"57.9000","6.2099","0.3109"
"58.0000","6.2182","0.3107"
"58.1000","6.2266","0.3115"
"58.2000","6.2349","0.3117"
"58.3000","6.2432","0.3117"
"58.4000","6.2515","0.3123"
"58.5000","6.2600","0.3125"
"58.6000","6.2682","0.3124"
"58.7000","6.2764","0.3129"
"58.8000","6.2849","0.3135"
"58.9000","6.2931","0.3137"
"59.0000","6.3014","0.3138"
"59.1000","6.3099","0.3142"
"59.2000","6.3182","0.3145"
"59.3000","6.3265","0.3144"
"59.4000","6.3348","0.3150"
"59.5000","6.3432","0.3149"
"59.6000","6.3515","0.3156"
"59.7000","6.3598","0.3155"
"59.8000","6.3682","0.3157"
"59.9000","6.3765","0.3162"
"60.0000","6.3848","0.3167"
"60.1000","6.3932","0.3166"
"60.2000","6.4014","0.3171"
"60.3000","6.4098","0.3174"
"60.4000","6.4181","0.3174"
"60.5000","6.4265","0.3176"
"60.6000","6.4348","0.3179"
"60.7000","6.4431","0.3184"
"60.8000","6.4516","0.3190"
"60.9000","6.4599","0.3191"
"61.0000","6.4681","0.3190"
"61.1000","6.4766","0.3195"
"61.2000","6.4849","0.3200"
"61.3000","6.4933","0.3202"
"61.4000","6.5016","0.3204"
"61.5000","6.5099","0.3203"
"61.6000","6.5182","0.3209"
"61.7000","6.5264","0.3211"
"61.8000","6.5349","0.3214"
"61.9000","6.5431","0.3213"
"62.0000","6.5514","0.3219"
"62.1000","6.5599","0.3221"
"62.2000","6.5682","0.3222"
"62.3000","6.5766","0.3224"
"62.4000","6.5849","0.3228"
"62.5000","6.5932","0.3230"
"62.6000","6.6015","0.3232"
"62.7000","6.6098","0.3236"
"62.8000","6.6183","0.3236"
"62.9000","6.6265","0.3241"
"63.0000","6.6348","0.3249"
"63.1000","6.6432","0.3246"
"63.2000","6.6514","0.3245"
"63.3000","6.6598","0.3253"
"63.4000","6.6681","0.3252"
"63.5000","6.6765","0.3256"
"63.6000","6.6848","0.3258"
"63.7000","6.6931","0.3262"
"63.8000","6.7016","0.3266"
"63.9000","6.7099","0.3267"
"64.0000","6.7182","0.3267"
"64.1000","6.7266","0.3271"
"64.2000","6.7349","0.3274"
"64.3000","6.7433","0.3278"
"64.4000","6.7516","0.3282"
"64.5000","6.7600","0.3285"
"64.6000","6.7682","0.3286"
"64.7000","6.7764","0.3289"
"64.8000","6.7848","0.3289"
"64.9000","6.7931","0.3291"
"65.0000","6.8014","0.3295"
"65.1000","6.8098","0.3300"
"65.2000","6.8182","0.3300"
"65.3000","6.8265","0.3302"
"65.4000","6.8349","0.3305"
"65.5000","6.8433","0.3308"
"65.6000","6.8515","0.3311"
"65.7000","6.8598","0.3312"
"65.8000","6.8683","0.3311"
"65.9000","6.8765","0.3318"
"66.0000","6.8849","0.3320"
"66.1000","6.8932","0.3323"
"66.2000","6.9014","0.3321"
"66.3000","6.9098","0.3330"
"66.4000","6.9181","0.3329"
"66.5000","6.9265","0.3331"
"66.6000","6.9348","0.3333"
"66.7000","6.9431","0.3338"
"66.8000","6.9516","0.3342"
"66.9000","6.9598","0.3339"
"67.0000","6.9681","0.3345"
"67.1000","6.9766","0.3346"
"67.2000","6.9849","0.3349"
"67.3000","6.9932","0.3350"
"67.4000","7.0015","0.3353"
"67.5000","7.0099","0.3357"
"67.6000","7.0182","0.3355"
"67.7000","7.0264","0.3359"
"67.8000","7.0349","0.3361"
"67.9000","7.0431","0.3363"
"68.0000","7.0514","0.3369"
"68.1000","7.0599","0.3371"
"68.2000","7.0682","0.3373"
"68.3000","7.0765","0.3376"
"68.4000","7.0848","0.3377"
"68.5000","7.0932","0.3375"
"68.6000","7.1015","0.3383"
"68.7000","7.1098","0.3383"
"68.8000","7.1183","0.3388"
"68.9000","7.1265","0.3384"
"69.0000","7.1348","0.3391"
"69.1000","7.1432","0.3392"
"69.2000","7.1515","0.3395"
"69.3000","7.1598","0.3401"
"69.4000","7.1681","0.3401"
"69.5000","7.1765","0.3403"
"69.6000","7.1848","0.3403"
"69.7000","7.1931","0.3406"
"69.8000","7.2016","0.3414"
"69.9000","7.2099","0.3413"
"70.0000","7.2182","0.3413"
"70.1000","7.2266","0.3417"
"70.2000","7.2349","0.3416"
"70.3000","7.2432","0.3420"
"70.4000","7.2516","0.3425"
"70.5000","7.2600","0.3426"
"70.6000","7.2682","0.3424"
"70.7000","7.2764","0.3430"
"70.8000","7.2849","0.3430"
"70.9000","7.2931","0.3430"
"71.0000","7.3014","0.3438"
"71.1000","7.3099","0.3440"
"71.2000","7.3181","0.3441"
"71.3000","7.3266","0.3442"
"71.4000","7.3349","0.3447"
"71.5000","7.3432","0.3444"
"71.6000","7.3515","0.3450"
"71.7000","7.3597","0.3452"
"71.8000","7.3682","0.3457"
"71.9000","7.3766","0.3455"
"72.0000","7.3848","0.3460"
"72.1000","7.3933","0.3458"
"72.2000","7.4014","0.3464"
"72.3000","7.4098","0.3464"
"72.4000","7.4181","0.3469"
"72.5000","7.4264","0.3469"
"72.6000","7.4348","0.3476"
"72.7000","7.4431","0.3473"
"72.8000","7.4516","0.3477"
"72.9000","7.4599","0.3476"
"73.0000","7.4682","0.3479"
"73.1000","7.4766","0.3487"
"73.2000","7.4849","0.3488"
"73.3000","7.4932","0.3488"
"73.4000","7.5015","0.3490"
"73.5000","7.5100","0.3491"
"73.6000","7.5182","0.3490"
"73.7000","7.5264","0.3499"
"73.8000","7.5349","0.3500"
"73.9000","7.5432","0.3501"
"74.0000","7.5514","0.3503"
"74.1000","7.5599","0.3507"
"74.2000","7.5681","0.3509"
"74.3000","7.5765","0.3506"
"74.4000","7.5848","0.3510"
"74.5000","7.5933","0.3511"
"74.6000","7.6016","0.3517"
"74.7000","7.6098","0.3517"
"74.8000","7.6183","0.3524"
"74.9000","7.6265","0.3519"
"75.0000","7.6349","0.3526"
"75.1000","7.6432","0.3528"
"75.2000","7.6514","0.3530"
"75.3000","7.6597","0.3530"
"75.4000","7.6681","0.3528"
"75.5000","7.6765","0.3532"
"75.6000","7.6848","0.3534"
"75.7000","7.6931","0.3537"
"75.8000","7.7016","0.3538"
"75.9000","7.7099","0.3545"
"76.0000","7.7182","0.3541"
"76.1000","7.7266","0.3546"
"76.2000","7.7349","0.3546"
"76.3000","7.7432","0.3548"
"76.4000","7.7516","0.3549"
"76.5000","7.7600","0.3559"
"76.6000","7.7682","0.3554"
"76.7000","7.7764","0.3558"
"76.8000","7.7849","0.3561"
"76.9000","7.7931","0.3560"
"77.0000","7.8014","0.3561"
"77.1000","7.8098","0.3571"
"77.2000","7.8181","0.3568"
"77.3000","7.8266","0.3568"
"77.4000","7.8349","0.3575"
"77.5000","7.8433","0.3572"
"77.6000","7.8515","0.3576"
"77.7000","7.8598","0.3579"
"77.8000","7.8683","0.3582"
"77.9000","7.8765","0.3581"
"78.0000","7.8848","0.3587"
"78.1000","7.8932","0.3587"
"78.2000","7.9014","0.3589"
"78.3000","7.9098","0.3591"
"78.4000","7.9181","0.3591"
"78.5000","7.9264","0.3593"
"78.6000","7.9347","0.3595"
"78.7000","7.9431","0.3595"
"78.8000","7.9516","0.3602"
"78.9000","7.9599","0.3601"
"79.0000","7.9681","0.3601"
"79.1000","7.9766","0.3604"
"79.2000","7.9849","0.3609"
"79.3000","7.9933","0.3612"
"79.4000","8.0016","0.3613"
"79.5000","8.0099","0.3615"
"79.6000","8.0182","0.3615"
"79.7000","8.0264","0.3618"
"79.8000","8.0349","0.3619"
"79.9000","8.0431","0.3621"
"80.0000","8.0514","0.3622"
"80.1000","8.0598","0.3623"
"80.2000","8.0682","0.3628"
"80.3000","8.0765","0.3628"
"80.4000","8.0848","0.3632"
"80.5000","8.0932","0.3629"
"80.6000","8.1015","0.3635"
"80.7000","8.1097","0.3635"
"80.8000","8.1183","0.3640"
"80.9000","8.1266","0.3640"
"81.0000","8.1348","0.3642"
"81.1000","8.1432","0.3640"
"81.2000","8.1514","0.3643"
"81.3000","8.1597","0.3648"
"81.4000","8.1681","0.3647"
"81.5000","8.1765","0.3648"
"81.6000","8.1848","0.3652"
"81.7000","8.1931","0.3655"
"81.8000","8.2016","0.3658"
"81.9000","8.2099","0.3657"
"82.0000","8.2182","0.3657"
"82.1000","8.2266","0.3663"
"82.2000","8.2349","0.3662"
"82.3000","8.2432","0.3668"
"82.4000","8.2515","0.3668"
"82.5000","8.2599","0.3668"
"82.6000","8.2683","0.3669"
"82.7000","8.2764","0.3671"
"82.8000","8.2849","0.3672"
"82.9000","8.2931","0.3676"
"83.0000","8.3014","0.3679"
"83.1000","8.3099","0.3680"
"83.2000","8.3182","0.3686"
"83.3000","8.3266","0.3685"
"83.4000","8.3349","0.3689"
"83.5000","8.3432","0.3689"
"83.6000","8.3515","0.3692"
"83.7000","8.3598","0.3688"
"83.8000","8.3682","0.3690"
"83.9000","8.3766","0.3697"
"84.0000","8.3848","0.3696"
"84.1000","8.3932","0.3696"
"84.2000","8.4014","0.3698"
"84.3000","8.4098","0.3701"
"84.4000","8.4181","0.3703"
"84.5000","8.4265","0.3704"
"84.6000","8.4348","0.3705"
"84.7000","8.4431","0.3709"
"84.8000","8.4516","0.3713"
"84.9000","8.4599","0.3713"
"85.0000","8.4682","0.3710"
"85.1000","8.4765","0.3714"
"85.2000","8.4849","0.3717"
"85.3000","8.4932","0.3718"
"85.4000","8.5016","0.3721"
"85.5000","8.5099","0.3725"
"85.6000","8.5182","0.3724"
"85.7000","8.5264","0.3721"
"85.8000","8.5349","0.3725"
"85.9000","8.5431","0.3727"
"86.0000","8.5513","0.3731"
"86.1000","8.5598","0.3730"
"86.2000","8.5681","0.3733"
"86.3000","8.5766","0.3735"
"86.4000","8.5849","0.3739"
"86.5000","8.5932","0.3739"
"86.6000","8.6015","0.3741"
"86.7000","8.6098","0.3741"
"86.8000","8.6183","0.3744"
"86.9000","8.6265","0.3744"
"87.0000","8.6349","0.3750"
"87.1000","8.6432","0.3747"
"87.2000","8.6515","0.3751"
"87.3000","8.6598","0.3755"
"87.4000","8.6681","0.3752"
"87.5000","8.6765","0.3748"
"87.6000","8.6848","0.3754"
"87.7000","8.6931","0.3757"
"87.8000","8.7016","0.3758"
"87.9000","8.7099","0.3762"
"88.0000","8.7182","0.3760"
"88.1000","8.7266","0.3768"
"88.2000","8.7349","0.3765"
"88.3000","8.7433","0.3769"
"88.4000","8.7515","0.3771"
"88.5000","8.7599","0.3771"
"88.6000","8.7682","0.3772"
"88.7000","8.7764","0.3776"
"88.8000","8.7849","0.3776"
"88.9000","8.7931","0.3780"
"89.0000","8.8014","0.3781"
"89.1000","8.8099","0.3784"
"89.2000","8.8182","0.3783"
"89.3000","8.8265","0.3778"
"89.4000","8.8348","0.3787"
"89.5000","8.8433","0.3785"
"89.6000","8.8516","0.3790"
"89.7000","8.8598","0.3789"
"89.8000","8.8682","0.3791"
"89.9000","8.8765","0.3796"
"90.0000","8.8848","0.3795"
"90.1000","8.8932","0.3798"
"90.2000","8.9015","0.3799"
"90.3000","8.9098","0.3803"
"90.4000","8.9181","0.3798"
"90.5000","8.9265","0.3799"
"90.6000","8.9348","0.3805"
"90.7000","8.9431","0.3807"
"90.8000","8.9516","0.3810"
"90.9000","8.9599","0.3808"
"91.0000","8.9682","0.3809"
"91.1000","8.9765","0.3811"
"91.2000","8.9849","0.3815"
"91.3000","8.9932","0.3817"
"91.4000","9.0016","0.3817"
"91.5000","9.0099","0.3818"
"91.6000","9.0182","0.3821"
"91.7000","9.0264","0.3822"
"91.8000","9.0349","0.3824"
"91.9000","9.0432","0.3824"
"92.0000","9.0514","0.3825"
"92.1000","9.0599","0.3830"
"92.2000","9.0682","0.3828"
"92.3000","9.0765","0.3828"
"92.4000","9.0848","0.3835"
"92.5000","9.0932","0.3830"
"92.6000","9.1015","0.3835"
"92.7000","9.1098","0.3836"
"92.8000","9.1183","0.3838"
"92.9000","9.1266","0.3835"
"93.0000","9.1349","0.3844"
"93.1000","9.1432","0.3840"
"93.2000","9.1514","0.3843"
"93.3000","9.1597","0.3846"
"93.4000","9.1681","0.3850"
"93.5000","9.1765","0.3846"
"93.6000","9.1848","0.3850"
"93.7000","9.1931","0.3850"
"93.8000","9.2016","0.3852"
"93.9000","9.2099","0.3854"
"94.0000","9.2182","0.3854"
"94.1000","9.2266","0.3863"
"94.2000","9.2349","0.3860"
"94.3000","9.2432","0.3861"
"94.4000","9.2516","0.3861"
"94.5000","9.2599","0.3860"
"94.6000","9.2682","0.3861"
"94.7000","9.2764","0.3866"
"94.8000","9.2849","0.3867"
"94.9000","9.2931","0.3869"
"95.0000","9.3014","0.3871"
"95.1000","9.3099","0.3873"
"95.2000","9.3181","0.3873"
"95.3000","9.3265","0.3874"
"95.4000","9.3349","0.3875"
"95.5000","9.3433","0.3876"
"95.6000","9.3516","0.3877"
"95.7000","9.3598","0.3880"
"95.8000","9.3682","0.3883"
"95.9000","9.3766","0.3884"
"96.0000","9.3849","0.3884"
"96.1000","9.3932","0.3885"
"96.2000","9.4014","0.3887"
"96.3000","9.4097","0.3888"
"96.4000","9.4181","0.3889"
"96.5000","9.4265","0.3888"
"96.6000","9.4348","0.3890"
"96.7000","9.4431","0.3896"
"96.8000","9.4516","0.3898"
"96.9000","9.4599","0.3898"
"97.0000","9.4682","0.3895"
"97.1000","9.4766","0.3903"
"97.2000","9.4849","0.3903"
"97.3000","9.4933","0.3902"
"97.4000","9.5015","0.3902"
"97.5000","9.5100","0.3905"
"97.6000","9.5183","0.3906"
"97.7000","9.5264","0.3914"
"97.8000","9.5349","0.3909"
"97.9000","9.5431","0.3910"
"98.0000","9.5514","0.3916"
"98.1000","9.5599","0.3914"
"98.2000","9.5682","0.3918"
"98.3000","9.5765","0.3913"
"98.4000","9.5848","0.3919"
"98.5000","9.5932","0.3918"
"98.6000","9.6015","0.3921"
"98.7000","9.6098","0.3925"
"98.8000","9.6183","0.3920"
"98.9000","9.6265","0.3925"
"99.0000","9.6348","0.3923"
"99.1000","9.6432","0.3926"
"99.2000","9.6515","0.3927"
"99.3000","9.6598","0.3930"
"99.4000","9.6681","0.3931"
"99.5000","9.6765","0.3932"
"99.6000","9.6848","0.3935"
"99.7000","9.6931","0.3934"
"99.8000","9.7016","0.3936"
"99.9000","9.7099","0.3943"
"100.0000","9.7182","0.3940"
"100.1000","9.7266","0.3940"
"100.2000","9.7349","0.3943"
"100.3000","9.7433","0.3943"
"100.4000","9.7515","0.3945"
"100.5000","9.7599","0.3946"
"100.6000","9.7682","0.3947"
"100.7000","9.7764","0.3949"
"100.8000","9.7849","0.3947"
"100.9000","9.7931","0.3954"
"101.0000","9.8014","0.3954"
"101.1000","9.8099","0.3954"
"101.2000","9.8182","0.3953"
"101.3000","9.8265","0.3959"
"101.4000","9.8349","0.3958"
"101.5000","9.8432","0.3957"
"101.6000","9.8515","0.3961"
"101.7000","9.8597","0.3963"
"101.8000","9.8682","0.3964"
"101.9000","9.8766","0.3962"
"102.0000","9.8848","0.3971"
"102.1000","9.8932","0.3963"
"102.2000","9.9014","0.3967"
"102.3000","9.9098","0.3971"
"102.4000","9.9181","0.3969"
"102.5000","9.9265","0.3971"
"102.6000","9.9348","0.3976"
"102.7000","9.9431","0.3974"
"102.8000","9.9516","0.3974"
"102.9000","9.9599","0.3980"
"103.0000","9.9681","0.3979"
"103.1000","9.9766","0.3979"
"103.2000","9.9849","0.3982"
"103.3000","9.9933","0.3983"
"103.4000","10.0016","0.3983"
"103.5000","10.0100","0.3985"
"103.6000","10.0182","0.3982"
"103.7000","10.0264","0.3984"
"103.8000","10.0349","0.3989"
"103.9000","10.0431","0.3988"
"104.0000","10.0514","0.3992"
"104.1000","10.0599","0.3994"
"104.2000","10.0682","0.3993"
"104.3000","10.0765","0.3994"
"104.4000","10.0848","0.3993"
"104.5000","10.0932","0.3997"
"104.6000","10.1015","0.3999"
"104.7000","10.1098","0.4000"
"104.8000","10.1183","0.4002"
"104.9000","10.1265","0.4001"
"105.0000","10.1348","0.4008"
"105.1000","10.1431","0.4003"
"105.2000","10.1514","0.4010"
"105.3000","10.1598","0.4010"
"105.4000","10.1681","0.4006"
"105.5000","10.1764","0.4011"
"105.6000","10.1848","0.4010"
"105.7000","10.1931","0.4015"
"105.8000","10.2016","0.4018"
"105.9000","10.2099","0.4016"
"106.0000","10.2182","0.4017"
"106.1000","10.2266","0.4018"
"106.2000","10.2349","0.4023"
"106.3000","10.2432","0.4020"
"106.4000","10.2516","0.4021"
"106.5000","10.2599","0.4025"
"106.6000","10.2683","0.4023"
"106.7000","10.2764","0.4023"
"106.8000","10.2849","0.4024"
"106.9000","10.2932","0.4025"
"107.0000","10.3014","0.4031"
"107.1000","10.3098","0.4031"
"107.2000","10.3182","0.4033"
"107.3000","10.3265","0.4035"
"107.4000","10.3348","0.4034"
"107.5000","10.3433","0.4037"
"107.6000","10.3515","0.4036"
"107.7000","10.3598","0.4038"
"107.8000","10.3683","0.4037"
"107.9000","10.3765","0.4038"
"108.0000","10.3849","0.4039"
"108.1000","10.3932","0.4039"
"108.2000","10.4014","0.4044"
"108.3000","10.4098","0.4045"
"108.4000","10.4181","0.4043"
"108.5000","10.4265","0.4046"
"108.6000","10.4348","0.4045"
"108.7000","10.4431","0.4045"
"108.8000","10.4516","0.4050"
"108.9000","10.4599","0.4052"
"109.0000","10.4682","0.4052"
"109.1000","10.4766","0.4054"
"109.2000","10.4849","0.4058"
"109.3000","10.4933","0.4058"
"109.4000","10.5015","0.4056"
"109.5000","10.5100","0.4060"
"109.6000","10.5183","0.4059"
"109.7000","10.5264","0.4061"
"109.8000","10.5349","0.4060"
"109.9000","10.5431","0.4060"
"110.0000","10.5514","0.4065"
"110.1000","10.5599","0.4066"
"110.2000","10.5681","0.4067"
"110.3000","10.5765","0.4064"
"110.4000","10.5849","0.4069"
"110.5000","10.5932","0.4071"
"110.6000","10.6015","0.4072"
"110.7000","10.6097","0.4074"
"110.8000","10.6183","0.4073"
"110.9000","10.6265","0.4071"
"111.0000","10.6348","0.4074"
"111.1000","10.6432","0.4075"
"111.2000","10.6514","0.4076"
"111.3000","10.6598","0.4082"
"111.4000","10.6681","0.4079"
"111.5000","10.6765","0.4078"
"111.6000","10.6849","0.4084"
"111.7000","10.6931","0.4081"
"111.8000","10.7016","0.4086"
"111.9000","10.7099","0.4086"
"112.0000","10.7182","0.4079"
"112.1000","10.7266","0.4087"
"112.2000","10.7349","0.4089"
"112.3000","10.7433","0.4087"
"112.4000","10.7515","0.4089"
"112.5000","10.7599","0.4091"
"112.6000","10.7682","0.4088"
"112.7000","10.7764","0.4093"
"112.8000","10.7849","0.4092"
"112.9000","10.7931","0.4097"
"113.0000","10.8014","0.4095"
"113.1000","10.8099","0.4098"
"113.2000","10.8182","0.4098"
"113.3000","10.8265","0.4096"
"113.4000","10.8348","0.4102"
"113.5000","10.8432","0.4097"
"113.6000","10.8515","0.4102"
"113.7000","10.8597","0.4103"
"113.8000","10.8683","0.4105"
"113.9000","10.8766","0.4106"
"114.0000","10.8848","0.4106"
"114.1000","10.8932","0.4107"
"114.2000","10.9014","0.4108"
"114.3000","10.9097","0.4113"
"114.4000","10.9181","0.4107"
"114.5000","10.9264","0.4112"
"114.6000","10.9348","0.4113"
"114.7000","10.9431","0.4112"
"114.8000","10.9516","0.4116"
"114.9000","10.9599","0.4115"
"115.0000","10.9682","0.4112"
"115.1000","10.9765","0.4116"
"115.2000","10.9849","0.4121"
"115.3000","10.9932","0.4121"
"115.4000","11.0016","0.4122"
"115.5000","11.0100","0.4123"
"115.6000","11.0182","0.4120"
"115.7000","11.0264","0.4124"
"115.8000","11.0349","0.4122"
"115.9000","11.0432","0.4124"
"116.0000","11.0514","0.4127"
"116.1000","11.0599","0.4128"
"116.2000","11.0682","0.4127"
"116.3000","11.0766","0.4128"
"116.4000","11.0849","0.4133"
"116.5000","11.0933","0.4130"
"116.6000","11.1016","0.4132"
"116.7000","11.1098","0.4129"
"116.8000","11.1183","0.4134"
"116.9000","11.1265","0.4132"
"117.0000","11.1349","0.4133"
"117.1000","11.1433","0.4132"
"117.2000","11.1514","0.4133"
"117.3000","11.1598","0.4137"
"117.4000","11.1681","0.4135"
"117.5000","11.1765","0.4137"
"117.6000","11.1848","0.4139"
"117.7000","11.1931","0.4139"
"117.8000","11.2016","0.4143"
"117.9000","11.2099","0.4138"
"118.0000","11.2182","0.4142"
"118.1000","11.2266","0.4141"
"118.2000","11.2349","0.4145"
"118.3000","11.2432","0.4145"
"118.4000","11.2516","0.4144"
"118.5000","11.2600","0.4141"
"118.6000","11.2682","0.4142"
"118.7000","11.2764","0.4144"
"118.8000","11.2849","0.4143"
"118.9000","11.2931","0.4146"
"119.0000","11.3014","0.4147"
"119.1000","11.3099","0.4148"
"119.2000","11.3182","0.4143"
"119.3000","11.3265","0.4149"
"119.4000","11.3348","0.4150"
"119.5000","11.3433","0.4144"
"119.6000","11.3515","0.4151"
"119.7000","11.3598","0.4149"
"119.8000","11.3683","0.4152"
"119.9000","11.3765","0.4156"
"120.0000","11.3848","0.4153"
"120.1000","11.3932","0.4152"
"120.2000","11.4014","0.4155"
"120.3000","11.4098","0.4159"
"120.4000","11.4181","0.4155"
"120.5000","11.4265","0.4154"
"120.6000","11.4348","0.4157"
"120.7000","11.4431","0.4159"
"120.8000","11.4516","0.4159"
"120.9000","11.4599","0.4159"
"121.0000","11.4681","0.4158"
"121.1000","11.4766","0.4159"
"121.2000","11.4849","0.4166"
"121.3000","11.4933","0.4163"
"121.4000","11.5016","0.4163"
"121.5000","11.5099","0.4162"
"121.6000","11.5182","0.4163"
"121.7000","11.5264","0.4165"
"121.8000","11.5349","0.4164"
"121.9000","11.5432","0.4165"
"122.0000","11.5514","0.4163"
"122.1000","11.5598","0.4161"
"122.2000","11.5682","0.4165"
"122.3000","11.5766","0.4165"
"122.4000","11.5849","0.4166"
"122.5000","11.5932","0.4165"
"122.6000","11.6015","0.4158"
"122.7000","11.6098","0.4160"
"122.8000","11.6183","0.4160"
"122.9000","11.6265","0.4162"
"123.0000","11.6348","0.4157"
"123.1000","11.6432","0.4156"
"123.2000","11.6516","0.0331"
"123.3000","11.6598","0.0477"
"123.4000","11.6681","0.0463"
"123.5000","11.6765","0.0461"
"123.6000","11.6848","0.0459"
"123.7000","11.6931","0.0460"
"123.8000","11.7016","0.0460"
"123.9000","11.7099","0.0459"
"124.0000","11.7181","0.0458"
"124.1000","11.7265","0.0459"
"124.2000","11.7348","0.0465"
"124.3000","11.7432","0.0469"
"124.4000","11.7516","0.0467"
"124.5000","11.7600","0.0467"
"124.6000","11.7682","0.0470"
"124.7000","11.7764","0.0472"
"124.8000","11.7849","0.0469"
"124.9000","11.7931","0.0472"
"125.0000","11.8014","0.0465"
"125.1000","11.8099","0.0470"
"125.2000","11.8182","0.0471"
"125.3000","11.8265","0.0467"
"125.4000","11.8349","0.0466"
"125.5000","11.8432","0.0467"
"125.6000","11.8515","0.0471"
"125.7000","11.8598","0.0472"
"125.8000","11.8682","0.0466"
"125.9000","11.8766","0.0467"
"126.0000","11.8849","0.0468"
"126.1000","11.8932","0.0469"
"126.2000","11.9014","0.0468"
"126.3000","11.9097","0.0468"
"126.4000","11.9181","0.0469"
"126.5000","11.9265","0.0467"
"126.6000","11.9348","0.0467"
"126.7000","11.9431","0.0469"
"126.8000","11.9516","0.0470"
"126.9000","11.9599","0.0473"
"127.0000","11.9681","0.0473"
"127.1000","11.9766","0.0468"
"127.2000","11.9849","0.0473"
"127.3000","11.9933","0.0471"
"127.4000","12.0015","0.0472"
"127.5000","12.0099","0.0474"
"127.6000","12.0182","0.0472"
"127.7000","12.0264","0.0472"
"127.8000","12.0349","0.0469"
"127.9000","12.0431","0.0470"
"128.0000","12.0514","0.0471"
"128.1000","12.0599","0.0474"
"128.1240","12.0618","0.0472"