File: flexural/ES100_Trevor_Flexural_Data_7_1.csv
Specimen text inputs : Specimen text input  1,,""

Results Table 1
,Specimen text input  1
"7","f45_f1"

Results Table 2

Time,Displacement,Force
(s),(mm),(kN)
"0.0000","1.3267","0.0201"
"0.1000","1.3357","0.0214"
"0.2000","1.3426","0.0219"
"0.3000","1.3506","0.0223"
"0.4000","1.3588","0.0232"
"0.5000","1.3672","0.0243"
"0.6000","1.3754","0.0245"
"0.7000","1.3837","0.0253"
"0.8000","1.3923","0.0259"
"0.9000","1.4004","0.0266"
"1.0000","1.4088","0.0274"
"1.1000","1.4171","0.0280"
"1.2000","1.4254","0.0289"
"1.3000","1.4338","0.0293"
"1.4000","1.4422","0.0298"
"1.5000","1.4506","0.0307"
"1.6000","1.4589","0.0315"
"1.7000","1.4671","0.0321"
"1.8000","1.4756","0.0326"
"1.9000","1.4839","0.0333"
"2.0000","1.4922","0.0342"
"2.1000","1.5006","0.0343"
"2.2000","1.5089","0.0350"
"2.3000","1.5171","0.0364"
"2.4000","1.5254","0.0368"
"2.5000","1.5339","0.0376"
"2.6000","1.5421","0.0384"
"2.7000","1.5504","0.0386"
"2.8000","1.5589","0.0399"
"2.9000","1.5673","0.0402"
"3.0000","1.5755","0.0406"
"3.1000","1.5839","0.0413"
"3.2000","1.5922","0.0423"
"3.3000","1.6004","0.0432"
"3.4000","1.6088","0.0437"
"3.5000","1.6172","0.0442"
"3.6000","1.6255","0.0449"
"3.7000","1.6338","0.0455"
"3.8000","1.6422","0.0464"
"3.9000","1.6504","0.0469"
"4.0000","1.6588","0.0479"
"4.1000","1.6672","0.0482"
"4.2000","1.6754","0.0487"
"4.3000","1.6838","0.0497"
"4.4000","1.6921","0.0501"
"4.5000","1.7006","0.0509"
"4.6000","1.7089","0.0517"
"4.7000","1.7172","0.0524"
"4.8000","1.7256","0.0531"
"4.9000","1.7339","0.0537"
"5.0000","1.7422","0.0543"
"5.1000","1.7506","0.0553"
"5.2000","1.7589","0.0560"
"5.3000","1.7671","0.0566"
"5.4000","1.7754","0.0570"
"5.5000","1.7838","0.0578"
"5.6000","1.7921","0.0584"
"5.7000","1.8004","0.0592"
"5.8000","1.8089","0.0599"
"5.9000","1.8172","0.0605"
"6.0000","1.8254","0.0614"
"6.1000","1.8339","0.0616"
"6.2000","1.8422","0.0624"
"6.3000","1.8505","0.0630"
"6.4000","1.8588","0.0642"
"6.5000","1.8672","0.0647"
"6.6000","1.8754","0.0652"
"6.7000","1.8838","0.0662"
"6.8000","1.8923","0.0662"
"6.9000","1.9004","0.0671"
"7.0000","1.9088","0.0678"
"7.1000","1.9171","0.0684"
"7.2000","1.9254","0.0692"
"7.3000","1.9338","0.0698"
"7.4000","1.9421","0.0704"
"7.5000","1.9506","0.0714"
"7.6000","1.9589","0.0720"
"7.7000","1.9671","0.0725"
"7.8000","1.9756","0.0732"
"7.9000","1.9839","0.0741"
"8.0000","1.9922","0.0745"
"8.1000","2.0006","0.0751"
"8.2000","2.0089","0.0759"
"8.3000","2.0172","0.0767"
"8.4000","2.0254","0.0769"
"8.5000","2.0339","0.0778"
"8.6000","2.0421","0.0786"
"8.7000","2.0504","0.0791"
"8.8000","2.0589","0.0801"
"8.9000","2.0673","0.0807"
"9.0000","2.0755","0.0812"
"9.1000","2.0839","0.0816"
"9.2000","2.0922","0.0827"
"9.3000","2.1005","0.0831"
"9.4000","2.1088","0.0836"
"9.5000","2.1173","0.0843"
"9.6000","2.1255","0.0851"
"9.7000","2.1338","0.0859"
"9.8000","2.1422","0.0862"
"9.9000","2.1504","0.0869"
"10.0000","2.1588","0.0878"
"10.1000","2.1671","0.0882"
"10.2000","2.1754","0.0886"
"10.3000","2.1838","0.0896"
"10.4000","2.1921","0.0900"
"10.5000","2.2006","0.0906"
"10.6000","2.2089","0.0918"
"10.7000","2.2172","0.0920"
"10.8000","2.2256","0.0925"
"10.9000","2.2339","0.0935"
"11.0000","2.2422","0.0940"
"11.1000","2.2506","0.0946"
"11.2000","2.2589","0.0952"
"11.3000","2.2671","0.0959"
"11.4000","2.2754","0.0963"
"11.5000","2.2839","0.0974"
"11.6000","2.2921","0.0974"
"11.7000","2.3004","0.0984"
"11.8000","2.3089","0.0989"
"11.9000","2.3172","0.0998"
"12.0000","2.3255","0.1005"
"12.1000","2.3339","0.1007"
"12.2000","2.3422","0.1015"
"12.3000","2.3505","0.1022"
"12.4000","2.3588","0.1029"
"12.5000","2.3672","0.1033"
"12.6000","2.3755","0.1039"
"12.7000","2.3838","0.1045"
"12.8000","2.3923","0.1051"
"12.9000","2.4004","0.1057"
"13.0000","2.4087","0.1063"
"13.1000","2.4171","0.1066"
"13.2000","2.4254","0.1076"
"13.3000","2.4338","0.1084"
"13.4000","2.4421","0.1091"
"13.5000","2.4506","0.1094"
"13.6000","2.4589","0.1102"
"13.7000","2.4672","0.1105"
"13.8000","2.4756","0.1112"
"13.9000","2.4839","0.1120"
"14.0000","2.4922","0.1128"
"14.1000","2.5006","0.1132"
"14.2000","2.5089","0.1139"
"14.3000","2.5172","0.1144"
"14.4000","2.5254","0.1149"
"14.5000","2.5339","0.1156"
"14.6000","2.5421","0.1164"
"14.7000","2.5504","0.1167"
"14.8000","2.5589","0.1174"
"14.9000","2.5673","0.1179"
"15.0000","2.5755","0.1185"
"15.1000","2.5839","0.1191"
"15.2000","2.5921","0.1196"
"15.3000","2.6005","0.1199"
"15.4000","2.6088","0.1206"
"15.5000","2.6172","0.1215"
"15.6000","2.6255","0.1217"
"15.7000","2.6338","0.1223"
"15.8000","2.6423","0.1230"
"15.9000","2.6504","0.1237"
"16.0000","2.6588","0.1245"
"16.1000","2.6671","0.1247"
"16.2000","2.6754","0.1252"
"16.3000","2.6838","0.1259"
"16.4000","2.6921","0.1267"
"16.5000","2.7006","0.1269"
"16.6000","2.7089","0.1278"
"16.7000","2.7171","0.1281"
"16.8000","2.7256","0.1287"
"16.9000","2.7339","0.1294"
"17.0000","2.7422","0.1302"
"17.1000","2.7506","0.1303"
"17.2000","2.7589","0.1311"
"17.3000","2.7671","0.1316"
"17.4000","2.7754","0.1323"
"17.5000","2.7839","0.1328"
"17.6000","2.7921","0.1334"
"17.7000","2.8004","0.1339"
"17.8000","2.8089","0.1343"
"17.9000","2.8173","0.1347"
"18.0000","2.8256","0.1351"
"18.1000","2.8339","0.1361"
"18.2000","2.8422","0.1366"
"18.3000","2.8504","0.1369"
"18.4000","2.8588","0.1379"
"18.5000","2.8672","0.1382"
"18.6000","2.8754","0.1387"
"18.7000","2.8837","0.1395"
"18.8000","2.8923","0.1397"
"18.9000","2.9004","0.1403"
"19.0000","2.9088","0.1409"
"19.1000","2.9171","0.1415"
"19.2000","2.9255","0.1421"
"19.3000","2.9338","0.1424"
"19.4000","2.9421","0.1431"
"19.5000","2.9506","0.1434"
"19.6000","2.9589","0.1442"
"19.7000","2.9671","0.1451"
"19.8000","2.9756","0.1454"
"19.9000","2.9839","0.1458"
"20.0000","2.9922","0.1467"
"20.1000","3.0006","0.1468"
"20.2000","3.0089","0.1479"
"20.3000","3.0171","0.1482"
"20.4000","3.0254","0.1487"
"20.5000","3.0339","0.1494"
"20.6000","3.0421","0.1493"
"20.7000","3.0504","0.1503"
"20.8000","3.0589","0.1507"
"20.9000","3.0672","0.1513"
"21.0000","3.0755","0.1519"
"21.1000","3.0839","0.1525"
"21.2000","3.0922","0.1531"
"21.3000","3.1005","0.1533"
"21.4000","3.1088","0.1539"
"21.5000","3.1172","0.1547"
"21.6000","3.1254","0.1552"
"21.7000","3.1338","0.1554"
"21.8000","3.1423","0.1558"
"21.9000","3.1505","0.1563"
"22.0000","3.1588","0.1570"
"22.1000","3.1671","0.1577"
"22.2000","3.1754","0.1581"
"22.3000","3.1838","0.1588"
"22.4000","3.1921","0.1593"
"22.5000","3.2006","0.1597"
"22.6000","3.2089","0.1603"
"22.7000","3.2171","0.1606"
"22.8000","3.2256","0.1614"
"22.9000","3.2339","0.1620"
"23.0000","3.2422","0.1623"
"23.1000","3.2505","0.1630"
"23.2000","3.2589","0.1632"
"23.3000","3.2672","0.1636"
"23.4000","3.2754","0.1646"
"23.5000","3.2839","0.1653"
"23.6000","3.2921","0.1652"
"23.7000","3.3004","0.1662"
"23.8000","3.3089","0.1666"
"23.9000","3.3173","0.1673"
"24.0000","3.3256","0.1676"
"24.1000","3.3339","0.1682"
"24.2000","3.3421","0.1688"
"24.3000","3.3505","0.1690"
"24.4000","3.3588","0.1695"
"24.5000","3.3672","0.1701"
"24.6000","3.3755","0.1705"
"24.7000","3.3838","0.1711"
"24.8000","3.3922","0.1715"
"24.9000","3.4004","0.1723"
"25.0000","3.4088","0.1725"
"25.1000","3.4171","0.1734"
"25.2000","3.4254","0.1731"
"25.3000","3.4338","0.1744"
"25.4000","3.4421","0.1744"
"25.5000","3.4506","0.1749"
"25.6000","3.4589","0.1754"
"25.7000","3.4671","0.1762"
"25.8000","3.4756","0.1767"
"25.9000","3.4839","0.1774"
"26.0000","3.4922","0.1776"
"26.1000","3.5006","0.1781"
"26.2000","3.5089","0.1782"
"26.3000","3.5171","0.1792"
"26.4000","3.5254","0.1797"
"26.5000","3.5339","0.1802"
"26.6000","3.5421","0.1806"
"26.7000","3.5504","0.1812"
"26.8000","3.5589","0.1816"
"26.9000","3.5672","0.1820"
"27.0000","3.5756","0.1826"
"27.1000","3.5840","0.1830"
"27.2000","3.5922","0.1832"
"27.3000","3.6005","0.1838"
"27.4000","3.6088","0.1843"
"27.5000","3.6172","0.1852"
"27.6000","3.6255","0.1857"
"27.7000","3.6338","0.1858"
"27.8000","3.6423","0.1862"
"27.9000","3.6504","0.1867"
"28.0000","3.6587","0.1872"
"28.1000","3.6671","0.1877"
"28.2000","3.6755","0.1881"
"28.3000","3.6838","0.1890"
"28.4000","3.6921","0.1895"
"28.5000","3.7006","0.1896"
"28.6000","3.7089","0.1902"
"28.7000","3.7171","0.1905"
"28.8000","3.7256","0.1914"
"28.9000","3.7339","0.1916"
"29.0000","3.7421","0.1923"
"29.1000","3.7506","0.1925"
"29.2000","3.7589","0.1931"
"29.3000","3.7672","0.1933"
"29.4000","3.7754","0.1941"
"29.5000","3.7837","0.1948"
"29.6000","3.7921","0.1948"
"29.7000","3.8004","0.1953"
"29.8000","3.8089","0.1956"
"29.9000","3.8172","0.1960"
"30.0000","3.8255","0.1968"
"30.1000","3.8339","0.1972"
"30.2000","3.8422","0.1976"
"30.3000","3.8505","0.1982"
"30.4000","3.8589","0.1987"
"30.5000","3.8672","0.1988"
"30.6000","3.8755","0.1993"
"30.7000","3.8838","0.2004"
"30.8000","3.8922","0.2003"
"30.9000","3.9004","0.2008"
"31.0000","3.9088","0.2015"
"31.1000","3.9171","0.2014"
"31.2000","3.9254","0.2023"
"31.3000","3.9338","0.2030"
"31.4000","3.9421","0.2035"
"31.5000","3.9506","0.2034"
"31.6000","3.9589","0.2042"
"31.7000","3.9671","0.2044"
"31.8000","3.9756","0.2050"
"31.9000","3.9839","0.2057"
"32.0000","3.9922","0.2061"
"32.1000","4.0006","0.2061"
"32.2000","4.0089","0.2069"
"32.3000","4.0171","0.2074"
"32.4000","4.0254","0.2076"
"32.5000","4.0339","0.2084"
"32.6000","4.0421","0.2087"
"32.7000","4.0503","0.2091"
"32.8000","4.0589","0.2096"
"32.9000","4.0672","0.2097"
"33.0000","4.0755","0.2104"
"33.1000","4.0839","0.2106"
"33.2000","4.0922","0.2110"
"33.3000","4.1005","0.2117"
"33.4000","4.1089","0.2119"
"33.5000","4.1173","0.2124"
"33.6000","4.1255","0.2129"
"33.7000","4.1338","0.2133"
"33.8000","4.1421","0.2140"
"33.9000","4.1504","0.2142"
"34.0000","4.1588","0.2150"
"34.1000","4.1671","0.2152"
"34.2000","4.1754","0.2159"
"34.3000","4.1838","0.2161"
"34.4000","4.1921","0.2163"
"34.5000","4.2006","0.2168"
"34.6000","4.2089","0.2175"
"34.7000","4.2172","0.2177"
"34.8000","4.2256","0.2181"
"34.9000","4.2339","0.2188"
"35.0000","4.2422","0.2190"
"35.1000","4.2506","0.2196"
"35.2000","4.2589","0.2201"
"35.3000","4.2672","0.2203"
"35.4000","4.2754","0.2211"
"35.5000","4.2838","0.2212"
"35.6000","4.2921","0.2219"
"35.7000","4.3004","0.2222"
"35.8000","4.3089","0.2223"
"35.9000","4.3172","0.2231"
"36.0000","4.3255","0.2230"
"36.1000","4.3339","0.2235"
"36.2000","4.3422","0.2240"
"36.3000","4.3505","0.2242"
"36.4000","4.3588","0.2251"
"36.5000","4.3672","0.2252"
"36.6000","4.3755","0.2261"
"36.7000","4.3838","0.2266"
"36.8000","4.3923","0.2263"
"36.9000","4.4004","0.2267"
"37.0000","4.4088","0.2272"
"37.1000","4.4171","0.2279"
"37.2000","4.4254","0.2281"
"37.3000","4.4339","0.2285"
"37.4000","4.4421","0.2291"
"37.5000","4.4506","0.2294"
"37.6000","4.4589","0.2301"
"37.7000","4.4671","0.2301"
"37.8000","4.4756","0.2304"
"37.9000","4.4839","0.2311"
"38.0000","4.4922","0.2317"
"38.1000","4.5005","0.2314"
"38.2000","4.5089","0.2325"
"38.3000","4.5171","0.2326"
"38.4000","4.5254","0.2333"
"38.5000","4.5339","0.2337"
"38.6000","4.5421","0.2338"
"38.7000","4.5504","0.2344"
"38.8000","4.5589","0.2348"
"38.9000","4.5673","0.2349"
"39.0000","4.5756","0.2354"
"39.1000","4.5839","0.2360"
"39.2000","4.5922","0.2365"
"39.3000","4.6006","0.2368"
"39.4000","4.6089","0.2372"
"39.5000","4.6172","0.2374"
"39.6000","4.6255","0.2380"
"39.7000","4.6337","0.2382"
"39.8000","4.6422","0.2386"
"39.9000","4.6504","0.2389"
"40.0000","4.6588","0.2398"
"40.1000","4.6671","0.2399"
"40.2000","4.6754","0.2403"
"40.3000","4.6838","0.2406"
"40.4000","4.6921","0.2412"
"40.5000","4.7006","0.2417"
"40.6000","4.7089","0.2419"
"40.7000","4.7171","0.2424"
"40.8000","4.7256","0.2426"
"40.9000","4.7339","0.2429"
"41.0000","4.7422","0.2432"
"41.1000","4.7506","0.2441"
"41.2000","4.7589","0.2444"
"41.3000","4.7671","0.2448"
"41.4000","4.7754","0.2449"
"41.5000","4.7838","0.2454"
"41.6000","4.7921","0.2460"
"41.7000","4.8004","0.2462"
"41.8000","4.8089","0.2468"
"41.9000","4.8172","0.2470"
"42.0000","4.8255","0.2471"
"42.1000","4.8339","0.2475"
"42.2000","4.8422","0.2478"
"42.3000","4.8505","0.2484"
"42.4000","4.8588","0.2487"
"42.5000","4.8672","0.2496"
"42.6000","4.8755","0.2497"
"42.7000","4.8838","0.2501"
"42.8000","4.8922","0.2505"
"42.9000","4.9004","0.2509"
"43.0000","4.9088","0.2514"
"43.1000","4.9172","0.2516"
"43.2000","4.9254","0.2520"
"43.3000","4.9338","0.2522"
"43.4000","4.9421","0.2527"
"43.5000","4.9506","0.2530"
"43.6000","4.9589","0.2535"
"43.7000","4.9672","0.2536"
"43.8000","4.9756","0.2542"
"43.9000","4.9839","0.2544"
"44.0000","4.9921","0.2549"
"44.1000","5.0006","0.2552"
"44.2000","5.0089","0.2557"
"44.3000","5.0171","0.2561"
"44.4000","5.0254","0.2564"
"44.5000","5.0338","0.2570"
"44.6000","5.0421","0.2572"
"44.7000","5.0504","0.2574"
"44.8000","5.0589","0.2579"
"44.9000","5.0673","0.2583"
"45.0000","5.0755","0.2586"
"45.1000","5.0839","0.2590"
"45.2000","5.0922","0.2593"
"45.3000","5.1006","0.2596"
"45.4000","5.1089","0.2598"
"45.5000","5.1172","0.2601"
"45.6000","5.1254","0.2607"
"45.7000","5.1338","0.2610"
"45.8000","5.1423","0.2612"
"45.9000","5.1505","0.2620"
"46.0000","5.1588","0.2626"
"46.1000","5.1671","0.2622"
"46.2000","5.1754","0.2627"
"46.3000","5.1838","0.2631"
"46.4000","5.1921","0.2637"
"46.5000","5.2006","0.2638"
"46.6000","5.2089","0.2644"
"46.7000","5.2172","0.2650"
"46.8000","5.2256","0.2653"
"46.9000","5.2339","0.2657"
"47.0000","5.2422","0.2660"
"47.1000","5.2506","0.2662"
"47.2000","5.2589","0.2666"
"47.3000","5.2671","0.2668"
"47.4000","5.2754","0.2677"
"47.5000","5.2839","0.2680"
"47.6000","5.2921","0.2681"
"47.7000","5.3004","0.2685"
"47.8000","5.3089","0.2687"
"47.9000","5.3172","0.2691"
"48.0000","5.3255","0.2694"
"48.1000","5.3339","0.2699"
"48.2000","5.3422","0.2702"
"48.3000","5.3505","0.2705"
"48.4000","5.3588","0.2709"
"48.5000","5.3672","0.2714"
"48.6000","5.3754","0.2718"
"48.7000","5.3838","0.2721"
"48.8000","5.3922","0.2725"
"48.9000","5.4005","0.2727"
"49.0000","5.4088","0.2731"
"49.1000","5.4171","0.2732"
"49.2000","5.4254","0.2738"
"49.3000","5.4338","0.2744"
"49.4000","5.4421","0.2746"
"49.5000","5.4506","0.2749"
"49.6000","5.4589","0.2755"
"49.7000","5.4672","0.2758"
"49.8000","5.4757","0.2763"
"49.9000","5.4839","0.2761"
"50.0000","5.4922","0.2770"
"50.1000","5.5006","0.2771"
"50.2000","5.5089","0.2775"
"50.3000","5.5172","0.2779"
"50.4000","5.5254","0.2781"
"50.5000","5.5338","0.2787"
"50.6000","5.5421","0.2792"
"50.7000","5.5504","0.2790"
"50.8000","5.5589","0.2795"
"50.9000","5.5672","0.2800"
"51.0000","5.5755","0.2802"
"51.1000","5.5839","0.2808"
"51.2000","5.5922","0.2812"
"51.3000","5.6005","0.2814"
"51.4000","5.6088","0.2818"
"51.5000","5.6172","0.2819"
"51.6000","5.6255","0.2819"
"51.7000","5.6337","0.2827"
"51.8000","5.6423","0.2831"
"51.9000","5.6504","0.2830"
"52.0000","5.6587","0.2836"
"52.1000","5.6671","0.2837"
"52.2000","5.6754","0.2839"
"52.3000","5.6839","0.2849"
"52.4000","5.6921","0.2853"
"52.5000","5.7006","0.2850"
"52.6000","5.7089","0.2858"
"52.7000","5.7171","0.2856"
"52.8000","5.7256","0.2861"
"52.9000","5.7339","0.2868"
"53.0000","5.7422","0.2868"
"53.1000","5.7506","0.2872"
"53.2000","5.7589","0.2876"
"53.3000","5.7672","0.2882"
"53.4000","5.7754","0.2882"
"53.5000","5.7839","0.2884"
"53.6000","5.7921","0.2887"
"53.7000","5.8003","0.2892"
"53.8000","5.8089","0.2896"
"53.9000","5.8173","0.2898"
"54.0000","5.8256","0.2903"
"54.1000","5.8339","0.2907"
"54.2000","5.8422","0.2907"
"54.3000","5.8506","0.2911"
"54.4000","5.8589","0.2913"
"54.5000","5.8673","0.2912"
"54.6000","5.8755","0.2920"
"54.7000","5.8837","0.2926"
"54.8000","5.8923","0.2924"
"54.9000","5.9004","0.2930"
"55.0000","5.9088","0.2934"
"55.1000","5.9171","0.2936"
"55.2000","5.9254","0.2936"
"55.3000","5.9338","0.2941"
"55.4000","5.9421","0.2946"
"55.5000","5.9506","0.2949"
"55.6000","5.9589","0.2953"
"55.7000","5.9672","0.2954"
"55.8000","5.9756","0.2952"
"55.9000","5.9839","0.2964"
"56.0000","5.9922","0.2964"
"56.1000","6.0006","0.2966"
"56.2000","6.0089","0.2967"
"56.3000","6.0171","0.2969"
"56.4000","6.0254","0.2974"
"56.5000","6.0339","0.2978"
"56.6000","6.0421","0.2980"
"56.7000","6.0504","0.2986"
"56.8000","6.0589","0.2986"
"56.9000","6.0672","0.2987"
"57.0000","6.0755","0.2992"
"57.1000","6.0839","0.2994"
"57.2000","6.0922","0.2997"
"57.3000","6.1005","0.2996"
"57.4000","6.1088","0.3005"
"57.5000","6.1172","0.3007"
"57.6000","6.1255","0.3010"
"57.7000","6.1337","0.3012"
"57.8000","6.1422","0.3017"
"57.9000","6.1504","0.3012"
"58.0000","6.1588","0.3020"
"58.1000","6.1671","0.3023"
"58.2000","6.1754","0.3027"
"58.3000","6.1839","0.3031"
"58.4000","6.1921","0.3029"
"58.5000","6.2006","0.3037"
"58.6000","6.2089","0.3040"
"58.7000","6.2171","0.3039"
"58.8000","6.2256","0.3041"
"58.9000","6.2339","0.3049"
"59.0000","6.2421","0.3050"
"59.1000","6.2506","0.3051"
"59.2000","6.2589","0.3054"
"59.3000","6.2671","0.3056"
"59.4000","6.2754","0.3060"
"59.5000","6.2838","0.3062"
"59.6000","6.2921","0.3068"
"59.7000","6.3004","0.3066"
"59.8000","6.3089","0.3072"
"59.9000","6.3172","0.3074"
"60.0000","6.3255","0.3079"
"60.1000","6.3339","0.3078"
"60.2000","6.3422","0.3081"
"60.3000","6.3505","0.3084"
"60.4000","6.3588","0.3089"
"60.5000","6.3672","0.3092"
"60.6000","6.3754","0.3092"
"60.7000","6.3837","0.3098"
"60.8000","6.3922","0.3100"
"60.9000","6.4004","0.3102"
"61.0000","6.4088","0.3105"
"61.1000","6.4171","0.3106"
"61.2000","6.4254","0.3109"
"61.3000","6.4339","0.3112"
"61.4000","6.4421","0.3115"
"61.5000","6.4506","0.3119"
"61.6000","6.4589","0.3121"
"61.7000","6.4671","0.3118"
"61.8000","6.4756","0.3126"
"61.9000","6.4839","0.3130"
"62.0000","6.4922","0.3132"
"62.1000","6.5006","0.3133"
"62.2000","6.5089","0.3135"
"62.3000","6.5171","0.3140"
"62.4000","6.5254","0.3141"
"62.5000","6.5339","0.3143"
"62.6000","6.5421","0.3147"
"62.7000","6.5504","0.3148"
"62.8000","6.5589","0.3151"
"62.9000","6.5672","0.3152"
"63.0000","6.5756","0.3157"
"63.1000","6.5839","0.3158"
"63.2000","6.5922","0.3165"
"63.3000","6.6005","0.3163"
"63.4000","6.6088","0.3165"
"63.5000","6.6172","0.3169"
"63.6000","6.6254","0.3171"
"63.7000","6.6337","0.3178"
"63.8000","6.6422","0.3178"
"63.9000","6.6504","0.3182"
"64.0000","6.6587","0.3187"
"64.1000","6.6671","0.3185"
"64.2000","6.6754","0.3190"
"64.3000","6.6838","0.3190"
"64.4000","6.6921","0.3193"
"64.5000","6.7006","0.3196"
"64.6000","6.7089","0.3200"
"64.7000","6.7171","0.3201"
"64.8000","6.7256","0.3204"
"64.9000","6.7339","0.3209"
"65.0000","6.7422","0.3210"
"65.1000","6.7506","0.3212"
"65.2000","6.7589","0.3216"
"65.3000","6.7672","0.3218"
"65.4000","6.7754","0.3220"
"65.5000","6.7838","0.3224"
"65.6000","6.7921","0.3224"
"65.7000","6.8004","0.3229"
"65.8000","6.8089","0.3229"
"65.9000","6.8172","0.3231"
"66.0000","6.8255","0.3236"
"66.1000","6.8339","0.3239"
"66.2000","6.8422","0.3237"
"66.3000","6.8505","0.3242"
"66.4000","6.8588","0.3245"
"66.5000","6.8672","0.3246"
"66.6000","6.8755","0.3249"
"66.7000","6.8838","0.3250"
"66.8000","6.8922","0.3254"
"66.9000","6.9004","0.3257"
"67.0000","6.9088","0.3262"
"67.1000","6.9171","0.3261"
"67.2000","6.9254","0.3266"
"67.3000","6.9339","0.3267"
"67.4000","6.9421","0.3273"
"67.5000","6.9506","0.3274"
"67.6000","6.9588","0.3276"
"67.7000","6.9671","0.3279"
"67.8000","6.9756","0.3282"
"67.9000","6.9839","0.3285"
"68.0000","6.9922","0.3284"
"68.1000","7.0006","0.3286"
"68.2000","7.0089","0.3287"
"68.3000","7.0171","0.3292"
"68.4000","7.0254","0.3294"
"68.5000","7.0339","0.3296"
"68.6000","7.0421","0.3298"
"68.7000","7.0504","0.3303"
"68.8000","7.0589","0.3302"
"68.9000","7.0673","0.3307"
"69.0000","7.0755","0.3311"
"69.1000","7.0839","0.3307"
"69.2000","7.0922","0.3313"
"69.3000","7.1005","0.3312"
"69.4000","7.1088","0.3318"
"69.5000","7.1172","0.3319"
"69.6000","7.1255","0.3324"
"69.7000","7.1337","0.3326"
"69.8000","7.1423","0.3325"
"69.9000","7.1505","0.3332"
"70.0000","7.1588","0.3334"
"70.1000","7.1671","0.3332"
"70.2000","7.1754","0.3335"
"70.3000","7.1838","0.3340"
"70.4000","7.1921","0.3344"
"70.5000","7.2006","0.3341"
"70.6000","7.2089","0.3347"
"70.7000","7.2171","0.3345"
"70.8000","7.2256","0.3350"
"70.9000","7.2339","0.3353"
"71.0000","7.2423","0.3353"
"71.1000","7.2506","0.3358"
"71.2000","7.2589","0.3361"
"71.3000","7.2672","0.3361"
"71.4000","7.2754","0.3361"
"71.5000","7.2839","0.3368"
"71.6000","7.2921","0.3368"
"71.7000","7.3004","0.3369"
"71.8000","7.3089","0.3375"
"71.9000","7.3172","0.3372"
"72.0000","7.3256","0.3378"
"72.1000","7.3339","0.3378"
"72.2000","7.3421","0.3382"
"72.3000","7.3505","0.3382"
"72.4000","7.3588","0.3386"
"72.5000","7.3672","0.3387"
"72.6000","7.3755","0.3389"
"72.7000","7.3837","0.3393"
"72.8000","7.3922","0.3394"
"72.9000","7.4004","0.3391"
"73.0000","7.4087","0.3401"
"73.1000","7.4171","0.3401"
"73.2000","7.4254","0.3400"
"73.3000","7.4338","0.3404"
"73.4000","7.4421","0.3409"
"73.5000","7.4506","0.3409"
"73.6000","7.4589","0.3412"
"73.7000","7.4672","0.3415"
"73.8000","7.4756","0.3412"
"73.9000","7.4839","0.3418"
"74.0000","7.4921","0.3421"
"74.1000","7.5006","0.3421"
"74.2000","7.5089","0.3424"
"74.3000","7.5171","0.3427"
"74.4000","7.5254","0.3429"
"74.5000","7.5339","0.3432"
"74.6000","7.5421","0.3433"
"74.7000","7.5504","0.3435"
"74.8000","7.5589","0.3439"
"74.9000","7.5672","0.3441"
"75.0000","7.5755","0.3444"
"75.1000","7.5839","0.3445"
"75.2000","7.5922","0.3447"
"75.3000","7.6006","0.3449"
"75.4000","7.6088","0.3449"
"75.5000","7.6172","0.3453"
"75.6000","7.6255","0.3455"
"75.7000","7.6338","0.3457"
"75.8000","7.6422","0.3457"
"75.9000","7.6504","0.3458"
"76.0000","7.6588","0.3463"
"76.1000","7.6671","0.3464"
"76.2000","7.6754","0.3468"
"76.3000","7.6839","0.3472"
"76.4000","7.6922","0.3470"
"76.5000","7.7006","0.3473"
"76.6000","7.7089","0.3472"
"76.7000","7.7171","0.3476"
"76.8000","7.7256","0.3481"
"76.9000","7.7339","0.3481"
"77.0000","7.7422","0.3483"
"77.1000","7.7506","0.3483"
"77.2000","7.7589","0.3486"
"77.3000","7.7672","0.3487"
"77.4000","7.7754","0.3490"
"77.5000","7.7839","0.3492"
"77.6000","7.7921","0.3495"
"77.7000","7.8004","0.3498"
"77.8000","7.8089","0.3499"
"77.9000","7.8172","0.3503"
"78.0000","7.8256","0.3501"
"78.1000","7.8339","0.3504"
"78.2000","7.8422","0.3508"
"78.3000","7.8505","0.3509"
"78.4000","7.8588","0.3511"
"78.5000","7.8672","0.3512"
"78.6000","7.8754","0.3513"
"78.7000","7.8837","0.3516"
"78.8000","7.8922","0.3516"
"78.9000","7.9005","0.3521"
"79.0000","7.9088","0.3520"
"79.1000","7.9171","0.3522"
"79.2000","7.9254","0.3524"
"79.3000","7.9338","0.3529"
"79.4000","7.9421","0.3530"
"79.5000","7.9506","0.3531"
"79.6000","7.9589","0.3533"
"79.7000","7.9671","0.3534"
"79.8000","7.9756","0.3536"
"79.9000","7.9839","0.3535"
"80.0000","7.9922","0.3541"
"80.1000","8.0006","0.3540"
"80.2000","8.0089","0.3546"
"80.3000","8.0171","0.3549"
"80.4000","8.0254","0.3544"
"80.5000","8.0338","0.3553"
"80.6000","8.0421","0.3553"
"80.7000","8.0504","0.3553"
"80.8000","8.0589","0.3555"
"80.9000","8.0673","0.3557"
"81.0000","8.0755","0.3561"
"81.1000","8.0839","0.3558"
"81.2000","8.0922","0.3564"
"81.3000","8.1005","0.3563"
"81.4000","8.1088","0.3568"
"81.5000","8.1172","0.3565"
"81.6000","8.1255","0.3570"
"81.7000","8.1337","0.3572"
"81.8000","8.1422","0.3573"
"81.9000","8.1504","0.3576"
"82.0000","8.1588","0.3579"
"82.1000","8.1671","0.3579"
"82.2000","8.1754","0.3580"
"82.3000","8.1838","0.3580"
"82.4000","8.1921","0.3587"
"82.5000","8.2006","0.3587"
"82.6000","8.2089","0.3587"
"82.7000","8.2171","0.3590"
"82.8000","8.2256","0.3591"
"82.9000","8.2339","0.3591"
"83.0000","8.2422","0.3594"
"83.1000","8.2506","0.3596"
"83.2000","8.2589","0.3596"
"83.3000","8.2672","0.3601"
"83.4000","8.2754","0.3601"
"83.5000","8.2838","0.3602"
"83.6000","8.2921","0.3606"
"83.7000","8.3004","0.3606"
"83.8000","8.3089","0.3613"
"83.9000","8.3173","0.3608"
"84.0000","8.3255","0.3612"
"84.1000","8.3339","0.3611"
"84.2000","8.3422","0.3616"
"84.3000","8.3506","0.3617"
"84.4000","8.3589","0.3621"
"84.5000","8.3673","0.3617"
"84.6000","8.3755","0.3622"
"84.7000","8.3837","0.3625"
"84.8000","8.3922","0.3626"
"84.9000","8.4005","0.3626"
"85.0000","8.4088","0.3629"
"85.1000","8.4171","0.3629"
"85.2000","8.4254","0.3632"
"85.3000","8.4338","0.3634"
"85.4000","8.4421","0.3637"
"85.5000","8.4506","0.3637"
"85.6000","8.4589","0.3636"
"85.7000","8.4671","0.3638"
"85.8000","8.4756","0.3641"
"85.9000","8.4839","0.3644"
"86.0000","8.4923","0.3647"
"86.1000","8.5006","0.3649"
"86.2000","8.5089","0.3649"
"86.3000","8.5171","0.3651"
"86.4000","8.5254","0.3653"
"86.5000","8.5339","0.3656"
"86.6000","8.5422","0.3655"
"86.7000","8.5503","0.3656"
"86.8000","8.5589","0.3660"
"86.9000","8.5672","0.3661"
"87.0000","8.5755","0.3660"
"87.1000","8.5839","0.3662"
"87.2000","8.5922","0.3661"
"87.3000","8.6005","0.3666"
"87.4000","8.6088","0.3669"
"87.5000","8.6172","0.3668"
"87.6000","8.6255","0.3670"
"87.7000","8.6338","0.3672"
"87.8000","8.6423","0.3673"
"87.9000","8.6504","0.3673"
"88.0000","8.6588","0.3680"
"88.1000","8.6671","0.3678"
"88.2000","8.6754","0.3680"
"88.3000","8.6839","0.3680"
"88.4000","8.6922","0.3687"
"88.5000","8.7006","0.3684"
"88.6000","8.7089","0.3687"
"88.7000","8.7171","0.3686"
"88.8000","8.7256","0.3688"
"88.9000","8.7339","0.3691"
"89.0000","8.7422","0.3694"
"89.1000","8.7506","0.3696"
"89.2000","8.7589","0.3695"
"89.3000","8.7672","0.3696"
"89.4000","8.7754","0.3699"
"89.5000","8.7838","0.3700"
"89.6000","8.7921","0.3701"
"89.7000","8.8004","0.3706"
"89.8000","8.8089","0.3706"
"89.9000","8.8172","0.3703"
"90.0000","8.8256","0.3707"
"90.1000","8.8339","0.3709"
"90.2000","8.8422","0.3710"
"90.3000","8.8506","0.3712"
"90.4000","8.8589","0.3718"
"90.5000","8.8672","0.3717"
"90.6000","8.8754","0.3718"
"90.7000","8.8837","0.3720"
"90.8000","8.8923","0.3717"
"90.9000","8.9005","0.3721"
"91.0000","8.9088","0.3721"
"91.1000","8.9171","0.3724"
"91.2000","8.9254","0.3727"
"91.3000","8.9338","0.3728"
"91.4000","8.9421","0.3729"
"91.5000","8.9506","0.3731"
"91.6000","8.9589","0.3730"
"91.7000","8.9671","0.3730"
"91.8000","8.9756","0.3734"
"91.9000","8.9839","0.3734"
"92.0000","8.9922","0.3737"
"92.1000","9.0006","0.3735"
"92.2000","9.0089","0.3741"
"92.3000","9.0171","0.3737"
"92.4000","9.0254","0.3740"
"92.5000","9.0339","0.3743"
"92.6000","9.0421","0.3743"
"92.7000","9.0504","0.3745"
"92.8000","9.0589","0.3746"
"92.9000","9.0673","0.3745"
"93.0000","9.0756","0.3748"
"93.1000","9.0839","0.3750"
"93.2000","9.0921","0.3755"
"93.3000","9.1005","0.3751"
"93.4000","9.1088","0.3754"
"93.5000","9.1172","0.3756"
"93.6000","9.1255","0.3759"
"93.7000","9.1338","0.3758"
"93.8000","9.1422","0.3759"
"93.9000","9.1505","0.3757"
"94.0000","9.1587","0.3756"
"94.1000","9.1671","0.3754"
"94.2000","9.1754","0.3756"
"94.3000","9.1838","0.3758"
"94.4000","9.1921","0.3759"
"94.5000","9.2006","0.3758"
"94.6000","9.2089","0.3758"
"94.7000","9.2171","0.3760"
"94.8000","9.2256","0.3763"
"94.9000","9.2339","0.3764"
"95.0000","9.2422","0.3764"
"95.1000","9.2506","0.3763"
"95.2000","9.2589","0.3766"
"95.3000","9.2672","0.3765"
"95.4000","9.2754","0.3768"
"95.5000","9.2838","0.3769"
"95.6000","9.2921","0.3774"
"95.7000","9.3004","0.3770"
"95.8000","9.3089","0.3776"
"95.9000","9.3172","0.3774"
"96.0000","9.3255","0.3774"
"96.1000","9.3339","0.3779"
"96.2000","9.3422","0.3776"
"96.3000","9.3506","0.3778"
"96.4000","9.3588","0.3782"
"96.5000","9.3672","0.3783"
"96.6000","9.3755","0.3782"
"96.7000","9.3838","0.3789"
"96.8000","9.3922","0.3783"
"96.9000","9.4004","0.3784"
"97.0000","9.4088","0.3787"
"97.1000","9.4171","0.3785"
"97.2000","9.4254","0.3787"
"97.3000","9.4339","0.3789"
"97.4000","9.4421","0.3791"
"97.5000","9.4506","0.3794"
"97.6000","9.4589","0.3797"
"97.7000","9.4671","0.3794"
"97.8000","9.4756","0.3797"
"97.9000","9.4839","0.3798"
"98.0000","9.4922","0.3799"
"98.1000","9.5005","0.3797"
"98.2000","9.5089","0.3801"
"98.3000","9.5172","0.3802"
"98.4000","9.5254","0.3805"
"98.5000","9.5339","0.3807"
"98.6000","9.5421","0.3804"
"98.7000","9.5503","0.3809"
"98.8000","9.5589","0.3807"
"98.9000","9.5673","0.3812"
"99.0000","9.5755","0.3812"
"99.1000","9.5839","0.3812"
"99.2000","9.5921","0.3811"
"99.3000","9.6005","0.3816"
"99.4000","9.6089","0.3810"
"99.5000","9.6173","0.3812"
"99.6000","9.6254","0.3814"
"99.7000","9.6338","0.3816"
"99.8000","9.6423","0.3816"
"99.9000","9.6505","0.3821"
"100.0000","9.6588","0.3821"
"100.1000","9.6671","0.3823"
"100.2000","9.6754","0.3824"
"100.3000","9.6839","0.3823"
"100.4000","9.6921","0.3827"
"100.5000","9.7006","0.3825"
"100.6000","9.7089","0.3828"
"100.7000","9.7171","0.3827"
"100.8000","9.7256","0.3830"
"100.9000","9.7339","0.3833"
"101.0000","9.7422","0.3831"
"101.1000","9.7506","0.3833"
"101.2000","9.7589","0.3836"
"101.3000","9.7671","0.3833"
"101.4000","9.7754","0.3830"
"101.5000","9.7839","0.3830"
"101.6000","9.7922","0.3832"
"101.7000","9.8004","0.3832"
"101.8000","9.8089","0.3835"
"101.9000","9.8173","0.3834"
"102.0000","9.8255","0.3831"
"102.1000","9.8339","0.3834"
"102.2000","9.8421","0.3834"
"102.3000","9.8505","0.3833"
"102.4000","9.8588","0.3837"
"102.5000","9.8672","0.3839"
"102.6000","9.8755","0.3838"
"102.7000","9.8837","0.3838"
"102.8000","9.8922","0.3841"
"102.9000","9.9004","0.3841"
"103.0000","9.9088","0.3842"
"103.1000","9.9172","0.3842"
"103.2000","9.9254","0.3844"
"103.3000","9.9338","0.3845"
"103.4000","9.9421","0.3848"
"103.5000","9.9506","0.3847"
"103.6000","9.9589","0.3850"
"103.7000","9.9671","0.3847"
"103.8000","9.9756","0.3851"
"103.9000","9.9839","0.3853"
"104.0000","9.9922","0.3854"
"104.1000","10.0006","0.3853"
"104.2000","10.0089","0.3855"
"104.3000","10.0172","0.3855"
"104.4000","10.0254","0.3855"
"104.5000","10.0338","0.3858"
"104.6000","10.0421","0.3859"
"104.7000","10.0504","0.3862"
"104.8000","10.0589","0.3860"
"104.9000","10.0672","0.3862"
"105.0000","10.0755","0.3863"
"105.1000","10.0839","0.3864"
"105.2000","10.0922","0.3864"
"105.3000","10.1005","0.3862"
"105.4000","10.1088","0.3865"
"105.5000","10.1173","0.3867"
"105.6000","10.1255","0.3864"
"105.7000","10.1338","0.3868"
"105.8000","10.1422","0.3868"
"105.9000","10.1504","0.3842"
"106.0000","10.1588","0.3840"
"106.1000","10.1671","0.3838"
"106.2000","10.1754","0.3836"
"106.3000","10.1838","0.3833"
"106.4000","10.1921","0.3831"
"106.5000","10.2006","0.3827"
"106.6000","10.2089","0.3827"
"106.7000","10.2171","0.3830"
"106.8000","10.2256","0.3823"
"106.9000","10.2339","0.3818"
"107.0000","10.2422","0.3816"
"107.1000","10.2506","0.3810"
"107.2000","10.2589","0.3802"
"107.3000","10.2672","0.3797"
"107.4000","10.2754","0.3793"
"107.5000","10.2839","0.3788"
"107.6000","10.2922","0.3780"
"107.7000","10.3003","0.3780"
"107.8000","10.3089","0.3778"
"107.9000","10.3172","0.3775"
"108.0000","10.3255","0.3777"
"108.1000","10.3339","0.3772"
"108.2000","10.3422","0.3769"
"108.3000","10.3505","0.3767"
"108.4000","10.3588","0.3767"
"108.5000","10.3672","0.3769"
"108.6000","10.3755","0.3766"
"108.7000","10.3838","0.3766"
"108.8000","10.3922","0.3762"
"108.9000","10.4004","0.3764"
"109.0000","10.4088","0.3766"
"109.1000","10.4171","0.3762"
"109.2000","10.4254","0.3760"
"109.3000","10.4338","0.3760"
"109.4000","10.4421","0.3762"
"109.5000","10.4506","0.3761"
"109.6000","10.4589","0.3760"
"109.7000","10.4671","0.3753"
"109.8000","10.4756","0.3749"
"109.9000","10.4839","0.3749"
"110.0000","10.4922","0.3741"
"110.1000","10.5006","0.3740"
"110.2000","10.5089","0.3738"
"110.3000","10.5172","0.3729"
"110.4000","10.5254","0.3730"
"110.5000","10.5339","0.3723"
"110.6000","10.5421","0.3686"
"110.7000","10.5504","0.3683"
"110.8000","10.5589","0.3670"
"110.9000","10.5672","0.3660"
"111.0000","10.5755","0.3660"
"111.1000","10.5839","0.3652"
"111.2000","10.5922","0.3647"
"111.3000","10.6005","0.3643"
"111.4000","10.6088","0.3640"
"111.5000","10.6172","0.3636"
"111.6000","10.6255","0.3635"
"111.7000","10.6338","0.3632"
"111.8000","10.6422","0.3625"
"111.9000","10.6504","0.3627"
"112.0000","10.6588","0.3615"
"112.1000","10.6671","0.3613"
"112.2000","10.6754","0.3613"
"112.3000","10.6838","0.3608"
"112.4000","10.6921","0.3611"
"112.5000","10.7006","0.3603"
"112.6000","10.7089","0.3605"
"112.7000","10.7171","0.3601"
"112.8000","10.7256","0.3602"
"112.9000","10.7339","0.3602"
"113.0000","10.7422","0.3601"
"113.1000","10.7505","0.3593"
"113.2000","10.7589","0.3591"
"113.3000","10.7672","0.3591"
"113.4000","10.7754","0.3590"
"113.5000","10.7839","0.3588"
"113.6000","10.7921","0.3590"
"113.7000","10.8004","0.3587"
"113.8000","10.8089","0.3586"
"113.9000","10.8173","0.3586"
"114.0000","10.8255","0.3584"
"114.1000","10.8339","0.3584"
"114.2000","10.8421","0.3582"
"114.3000","10.8505","0.3583"
"114.4000","10.8588","0.3585"
"114.5000","10.8672","0.3584"
"114.6000","10.8755","0.3581"
"114.7000","10.8837","0.3579"
"114.8000","10.8923","0.3579"
"114.9000","10.9004","0.3575"
"115.0000","10.9088","0.3579"
"115.1000","10.9171","0.3574"
"115.2000","10.9254","0.3575"
"115.3000","10.9338","0.3575"
"115.4000","10.9421","0.3572"
"115.5000","10.9506","0.3571"
"115.6000","10.9589","0.3571"
"115.7000","10.9671","0.3571"
"115.8000","10.9756","0.3570"
"115.9000","10.9839","0.3569"
"116.0000","10.9922","0.3568"
"116.1000","11.0006","0.3567"
"116.2000","11.0089","0.3567"
"116.3000","11.0171","0.3559"
"116.4000","11.0254","0.3552"
"116.5000","11.0339","0.3547"
"116.6000","11.0421","0.3524"
"116.7000","11.0504","0.3499"
"116.8000","11.0589","0.3489"
"116.9000","11.0672","0.3484"
"117.0000","11.0755","0.3476"
"117.1000","11.0840","0.3462"
"117.2000","11.0922","0.3454"
"117.3000","11.1006","0.3445"
"117.4000","11.1088","0.3436"
"117.5000","11.1172","0.3425"
"117.6000","11.1255","0.3173"
"117.7000","11.1338","0.1352"
"117.8000","11.1422","0.1333"
"117.9000","11.1504","0.1316"
"118.0000","11.1588","0.1308"
"118.1000","11.1671","0.1299"
"118.2000","11.1754","0.1294"
"118.3000","11.1838","0.1290"
"118.4000","11.1921","0.1291"
"118.5000","11.2006","0.1286"
"118.6000","11.2089","0.1289"
"118.7000","11.2171","0.1281"
"118.8000","11.2256","0.1275"
"118.9000","11.2339","0.1277"
"119.0000","11.2422","0.1275"
"119.1000","11.2506","0.1277"
"119.2000","11.2589","0.1278"
"119.3000","11.2672","0.1276"
"119.4000","11.2754","0.1275"
"119.5000","11.2838","0.1276"
"119.6000","11.2921","0.1271"
"119.7000","11.3004","0.1273"
"119.8000","11.3089","0.1269"
"119.9000","11.3173","0.1264"
"120.0000","11.3256","0.1259"
"120.1000","11.3339","0.1250"
"120.2000","11.3422","0.1243"
"120.3000","11.3506","0.1235"
"120.4000","11.3588","0.1229"
"120.5000","11.3672","0.1222"
"120.6000","11.3755","0.1218"
"120.7000","11.3838","0.1214"
"120.8000","11.3923","0.1204"
"120.8900","11.3997","0.1183"