File: flexural/ES100_Trevor_Flexural_Data_13_1.csv
Specimen text inputs : Specimen text input  1,,""

Results Table 1
,Specimen text input  1
"13","bh_f1"

Results Table 2

Time,Displacement,Force
(s),(mm),(kN)
"0.0000","0.4887","0.0204"
"0.0400","0.4966","0.0228"
"0.0800","0.4974","0.0233"
"0.1200","0.4988","0.0234"
"0.1600","0.5014","0.0239"
"0.2000","0.5045","0.0243"
"0.2400","0.5078","0.0250"
"0.2800","0.5111","0.0255"
"0.3200","0.5141","0.0259"
"0.3600","0.5174","0.0265"
"0.4000","0.5209","0.0272"
"0.4400","0.5241","0.0275"
"0.4800","0.5274","0.0284"
"0.5200","0.5308","0.0291"
"0.5600","0.5342","0.0297"
"0.6000","0.5374","0.0302"
"0.6400","0.5408","0.0306"
"0.6800","0.5441","0.0313"
"0.7200","0.5476","0.0316"
"0.7600","0.5507","0.0323"
"0.8000","0.5542","0.0330"
"0.8400","0.5576","0.0338"
"0.8800","0.5608","0.0344"
"0.9200","0.5642","0.0347"
"0.9600","0.5675","0.0354"
"1.0000","0.5709","0.0360"
"1.0400","0.5741","0.0368"
"1.0800","0.5774","0.0374"
"1.1200","0.5808","0.0380"
"1.1600","0.5843","0.0384"
"1.2000","0.5874","0.0392"
"1.2400","0.5908","0.0399"
"1.2800","0.5943","0.0405"
"1.3200","0.5974","0.0408"
"1.3600","0.6008","0.0415"
"1.4000","0.6041","0.0420"
"1.4400","0.6075","0.0429"
"1.4800","0.6108","0.0432"
"1.5200","0.6141","0.0443"
"1.5600","0.6176","0.0450"
"1.6000","0.6208","0.0457"
"1.6400","0.6241","0.0460"
"1.6800","0.6275","0.0466"
"1.7200","0.6309","0.0476"
"1.7600","0.6341","0.0478"
"1.8000","0.6376","0.0484"
"1.8400","0.6408","0.0490"
"1.8800","0.6442","0.0495"
"1.9200","0.6475","0.0501"
"1.9600","0.6508","0.0510"
"2.0000","0.6543","0.0515"
"2.0400","0.6574","0.0521"
"2.0800","0.6608","0.0532"
"2.1200","0.6642","0.0534"
"2.1600","0.6674","0.0540"
"2.2000","0.6708","0.0549"
"2.2400","0.6742","0.0555"
"2.2800","0.6776","0.0561"
"2.3200","0.6808","0.0565"
"2.3600","0.6841","0.0572"
"2.4000","0.6875","0.0579"
"2.4400","0.6909","0.0584"
"2.4800","0.6941","0.0591"
"2.5200","0.6976","0.0596"
"2.5600","0.7009","0.0606"
"2.6000","0.7041","0.0613"
"2.6400","0.7076","0.0620"
"2.6800","0.7108","0.0628"
"2.7200","0.7143","0.0631"
"2.7600","0.7174","0.0639"
"2.8000","0.7208","0.0645"
"2.8400","0.7243","0.0651"
"2.8800","0.7275","0.0658"
"2.9200","0.7308","0.0669"
"2.9600","0.7343","0.0672"
"3.0000","0.7376","0.0675"
"3.0400","0.7408","0.0683"
"3.0800","0.7442","0.0689"
"3.1200","0.7475","0.0695"
"3.1600","0.7509","0.0703"
"3.2000","0.7542","0.0711"
"3.2400","0.7576","0.0715"
"3.2800","0.7610","0.0722"
"3.3200","0.7641","0.0729"
"3.3600","0.7675","0.0737"
"3.4000","0.7709","0.0743"
"3.4400","0.7742","0.0751"
"3.4800","0.7774","0.0758"
"3.5200","0.7809","0.0761"
"3.5600","0.7842","0.0767"
"3.6000","0.7875","0.0775"
"3.6400","0.7907","0.0781"
"3.6800","0.7941","0.0784"
"3.7200","0.7976","0.0793"
"3.7600","0.8007","0.0798"
"3.8000","0.8041","0.0810"
"3.8400","0.8076","0.0813"
"3.8800","0.8108","0.0820"
"3.9200","0.8142","0.0825"
"3.9600","0.8176","0.0836"
"4.0000","0.8209","0.0839"
"4.0400","0.8241","0.0847"
"4.0800","0.8275","0.0854"
"4.1200","0.8309","0.0859"
"4.1600","0.8342","0.0867"
"4.2000","0.8374","0.0871"
"4.2400","0.8408","0.0881"
"4.2800","0.8443","0.0885"
"4.3200","0.8474","0.0889"
"4.3600","0.8508","0.0900"
"4.4000","0.8541","0.0904"
"4.4400","0.8576","0.0914"
"4.4800","0.8608","0.0915"
"4.5200","0.8641","0.0926"
"4.5600","0.8676","0.0934"
"4.6000","0.8708","0.0938"
"4.6400","0.8741","0.0942"
"4.6800","0.8776","0.0952"
"4.7200","0.8809","0.0961"
"4.7600","0.8841","0.0963"
"4.8000","0.8875","0.0967"
"4.8400","0.8908","0.0979"
"4.8800","0.8941","0.0986"
"4.9200","0.8974","0.0992"
"4.9600","0.9008","0.1001"
"5.0000","0.9042","0.1006"
"5.0400","0.9074","0.1011"
"5.0800","0.9108","0.1019"
"5.1200","0.9142","0.1027"
"5.1600","0.9175","0.1030"
"5.2000","0.9208","0.1034"
"5.2400","0.9242","0.1043"
"5.2800","0.9275","0.1050"
"5.3200","0.9308","0.1057"
"5.3600","0.9341","0.1065"
"5.4000","0.9374","0.1072"
"5.4400","0.9409","0.1080"
"5.4800","0.9441","0.1087"
"5.5200","0.9476","0.1090"
"5.5600","0.9509","0.1095"
"5.6000","0.9541","0.1105"
"5.6400","0.9576","0.1113"
"5.6800","0.9608","0.1119"
"5.7200","0.9642","0.1124"
"5.7600","0.9675","0.1132"
"5.8000","0.9708","0.1138"
"5.8400","0.9742","0.1143"
"5.8800","0.9774","0.1153"
"5.9200","0.9808","0.1158"
"5.9600","0.9842","0.1163"
"6.0000","0.9876","0.1173"
"6.0400","0.9908","0.1177"
"6.0800","0.9942","0.1183"
"6.1200","0.9975","0.1189"
"6.1600","1.0009","0.1198"
"6.2000","1.0042","0.1202"
"6.2400","1.0076","0.1208"
"6.2800","1.0110","0.1216"
"6.3200","1.0141","0.1224"
"6.3600","1.0174","0.1229"
"6.4000","1.0209","0.1236"
"6.4400","1.0242","0.1244"
"6.4800","1.0274","0.1243"
"6.5200","1.0309","0.1252"
"6.5600","1.0342","0.1263"
"6.6000","1.0375","0.1272"
"6.6400","1.0408","0.1272"
"6.6800","1.0441","0.1279"
"6.7200","1.0476","0.1287"
"6.7600","1.0507","0.1297"
"6.8000","1.0542","0.1301"
"6.8400","1.0576","0.1304"
"6.8800","1.0608","0.1312"
"6.9200","1.0641","0.1319"
"6.9600","1.0675","0.1326"
"7.0000","1.0709","0.1330"
"7.0400","1.0741","0.1337"
"7.0800","1.0774","0.1345"
"7.1200","1.0809","0.1351"
"7.1600","1.0843","0.1357"
"7.2000","1.0874","0.1363"
"7.2400","1.0909","0.1370"
"7.2800","1.0943","0.1379"
"7.3200","1.0974","0.1385"
"7.3600","1.1008","0.1394"
"7.4000","1.1041","0.1399"
"7.4400","1.1075","0.1403"
"7.4800","1.1107","0.1409"
"7.5200","1.1141","0.1419"
"7.5600","1.1176","0.1423"
"7.6000","1.1208","0.1433"
"7.6400","1.1241","0.1437"
"7.6800","1.1275","0.1444"
"7.7200","1.1309","0.1449"
"7.7600","1.1341","0.1455"
"7.8000","1.1376","0.1460"
"7.8400","1.1409","0.1467"
"7.8800","1.1442","0.1472"
"7.9200","1.1476","0.1483"
"7.9600","1.1508","0.1485"
"8.0000","1.1543","0.1495"
"8.0400","1.1573","0.1500"
"8.0800","1.1608","0.1508"
"8.1200","1.1642","0.1510"
"8.1600","1.1675","0.1523"
"8.2000","1.1709","0.1526"
"8.2400","1.1742","0.1533"
"8.2800","1.1776","0.1538"
"8.3200","1.1808","0.1546"
"8.3600","1.1842","0.1553"
"8.4000","1.1875","0.1559"
"8.4400","1.1909","0.1568"
"8.4800","1.1941","0.1573"
"8.5200","1.1976","0.1576"
"8.5600","1.2009","0.1584"
"8.6000","1.2041","0.1592"
"8.6400","1.2076","0.1598"
"8.6800","1.2108","0.1603"
"8.7200","1.2142","0.1612"
"8.7600","1.2174","0.1619"
"8.8000","1.2208","0.1627"
"8.8400","1.2243","0.1630"
"8.8800","1.2275","0.1636"
"8.9200","1.2308","0.1648"
"8.9600","1.2343","0.1651"
"9.0000","1.2376","0.1658"
"9.0400","1.2408","0.1665"
"9.0800","1.2443","0.1672"
"9.1200","1.2475","0.1676"
"9.1600","1.2509","0.1683"
"9.2000","1.2542","0.1688"
"9.2400","1.2576","0.1698"
"9.2800","1.2611","0.1703"
"9.3200","1.2641","0.1709"
"9.3600","1.2675","0.1716"
"9.4000","1.2709","0.1727"
"9.4400","1.2742","0.1731"
"9.4800","1.2774","0.1736"
"9.5200","1.2809","0.1746"
"9.5600","1.2842","0.1747"
"9.6000","1.2874","0.1754"
"9.6400","1.2908","0.1761"
"9.6800","1.2941","0.1768"
"9.7200","1.2976","0.1775"
"9.7600","1.3007","0.1781"
"9.8000","1.3041","0.1789"
"9.8400","1.3076","0.1793"
"9.8800","1.3108","0.1802"
"9.9200","1.3141","0.1808"
"9.9600","1.3175","0.1815"
"10.0000","1.3209","0.1819"
"10.0400","1.3241","0.1827"
"10.0800","1.3274","0.1833"
"10.1200","1.3308","0.1841"
"10.1600","1.3342","0.1846"
"10.2000","1.3374","0.1851"
"10.2400","1.3408","0.1860"
"10.2800","1.3443","0.1866"
"10.3200","1.3474","0.1872"
"10.3600","1.3509","0.1879"
"10.4000","1.3542","0.1885"
"10.4400","1.3576","0.1889"
"10.4800","1.3609","0.1899"
"10.5200","1.3641","0.1906"
"10.5600","1.3676","0.1913"
"10.6000","1.3708","0.1918"
"10.6400","1.3741","0.1923"
"10.6800","1.3775","0.1931"
"10.7200","1.3809","0.1940"
"10.7600","1.3841","0.1941"
"10.8000","1.3876","0.1947"
"10.8400","1.3909","0.1956"
"10.8800","1.3943","0.1962"
"10.9200","1.3975","0.1969"
"10.9600","1.4008","0.1973"
"11.0000","1.4043","0.1986"
"11.0400","1.4074","0.1989"
"11.0800","1.4108","0.1995"
"11.1200","1.4142","0.1998"
"11.1600","1.4174","0.2008"
"11.2000","1.4208","0.2017"
"11.2400","1.4241","0.2028"
"11.2800","1.4275","0.2027"
"11.3200","1.4308","0.2033"
"11.3600","1.4342","0.2039"
"11.4000","1.4375","0.2047"
"11.4400","1.4409","0.2057"
"11.4800","1.4441","0.2061"
"11.5200","1.4476","0.2067"
"11.5600","1.4509","0.2070"
"11.6000","1.4541","0.2079"
"11.6400","1.4575","0.2084"
"11.6800","1.4608","0.2092"
"11.7200","1.4642","0.2095"
"11.7600","1.4675","0.2107"
"11.8000","1.4708","0.2111"
"11.8400","1.4742","0.2117"
"11.8800","1.4775","0.2123"
"11.9200","1.4808","0.2130"
"11.9600","1.4843","0.2136"
"12.0000","1.4876","0.2142"
"12.0400","1.4907","0.2150"
"12.0800","1.4943","0.2153"
"12.1200","1.4975","0.2162"
"12.1600","1.5009","0.2169"
"12.2000","1.5042","0.2174"
"12.2400","1.5075","0.2180"
"12.2800","1.5110","0.2185"
"12.3200","1.5141","0.2195"
"12.3600","1.5175","0.2198"
"12.4000","1.5209","0.2202"
"12.4400","1.5242","0.2213"
"12.4800","1.5274","0.2219"
"12.5200","1.5309","0.2226"
"12.5600","1.5342","0.2230"
"12.6000","1.5374","0.2238"
"12.6400","1.5408","0.2246"
"12.6800","1.5441","0.2250"
"12.7200","1.5476","0.2256"
"12.7600","1.5507","0.2265"
"12.8000","1.5541","0.2269"
"12.8400","1.5576","0.2275"
"12.8800","1.5608","0.2285"
"12.9200","1.5642","0.2289"
"12.9600","1.5675","0.2293"
"13.0000","1.5709","0.2299"
"13.0400","1.5741","0.2305"
"13.0800","1.5774","0.2311"
"13.1200","1.5808","0.2319"
"13.1600","1.5842","0.2326"
"13.2000","1.5874","0.2332"
"13.2400","1.5908","0.2336"
"13.2800","1.5943","0.2345"
"13.3200","1.5974","0.2352"
"13.3600","1.6008","0.2362"
"13.4000","1.6041","0.2367"
"13.4400","1.6075","0.2368"
"13.4800","1.6108","0.2375"
"13.5200","1.6141","0.2382"
"13.5600","1.6176","0.2387"
"13.6000","1.6208","0.2398"
"13.6400","1.6241","0.2401"
"13.6800","1.6275","0.2407"
"13.7200","1.6309","0.2415"
"13.7600","1.6341","0.2422"
"13.8000","1.6375","0.2429"
"13.8400","1.6408","0.2430"
"13.8800","1.6442","0.2436"
"13.9200","1.6475","0.2443"
"13.9600","1.6508","0.2453"
"14.0000","1.6543","0.2459"
"14.0400","1.6574","0.2466"
"14.0800","1.6608","0.2470"
"14.1200","1.6642","0.2475"
"14.1600","1.6675","0.2484"
"14.2000","1.6708","0.2490"
"14.2400","1.6741","0.2493"
"14.2800","1.6775","0.2499"
"14.3200","1.6808","0.2508"
"14.3600","1.6841","0.2513"
"14.4000","1.6875","0.2516"
"14.4400","1.6909","0.2527"
"14.4800","1.6941","0.2534"
"14.5200","1.6975","0.2534"
"14.5600","1.7009","0.2545"
"14.6000","1.7041","0.2553"
"14.6400","1.7076","0.2557"
"14.6800","1.7109","0.2564"
"14.7200","1.7143","0.2575"
"14.7600","1.7175","0.2576"
"14.8000","1.7208","0.2580"
"14.8400","1.7243","0.2589"
"14.8800","1.7275","0.2601"
"14.9200","1.7308","0.2604"
"14.9600","1.7342","0.2605"
"15.0000","1.7376","0.2614"
"15.0400","1.7408","0.2618"
"15.0800","1.7442","0.2623"
"15.1200","1.7475","0.2632"
"15.1600","1.7509","0.2638"
"15.2000","1.7542","0.2643"
"15.2400","1.7576","0.2647"
"15.2800","1.7610","0.2659"
"15.3200","1.7641","0.2663"
"15.3600","1.7675","0.2672"
"15.4000","1.7709","0.2673"
"15.4400","1.7742","0.2682"
"15.4800","1.7774","0.2685"
"15.5200","1.7809","0.2692"
"15.5600","1.7842","0.2700"
"15.6000","1.7875","0.2704"
"15.6400","1.7908","0.2713"
"15.6800","1.7941","0.2717"
"15.7200","1.7976","0.2723"
"15.7600","1.8007","0.2734"
"15.8000","1.8041","0.2740"
"15.8400","1.8076","0.2746"
"15.8800","1.8108","0.2751"
"15.9200","1.8141","0.2752"
"15.9600","1.8175","0.2759"
"16.0000","1.8209","0.2770"
"16.0400","1.8241","0.2772"
"16.0800","1.8275","0.2779"
"16.1200","1.8308","0.2787"
"16.1600","1.8343","0.2795"
"16.2000","1.8374","0.2798"
"16.2400","1.8408","0.2810"
"16.2800","1.8442","0.2813"
"16.3200","1.8474","0.2816"
"16.3600","1.8508","0.2825"
"16.4000","1.8541","0.2832"
"16.4400","1.8575","0.2839"
"16.4800","1.8608","0.2843"
"16.5200","1.8641","0.2851"
"16.5600","1.8676","0.2860"
"16.6000","1.8708","0.2866"
"16.6400","1.8741","0.2870"
"16.6800","1.8775","0.2876"
"16.7200","1.8809","0.2881"
"16.7600","1.8841","0.2887"
"16.8000","1.8876","0.2894"
"16.8400","1.8909","0.2901"
"16.8800","1.8942","0.2906"
"16.9200","1.8975","0.2913"
"16.9600","1.9008","0.2918"
"17.0000","1.9042","0.2927"
"17.0400","1.9074","0.2933"
"17.0800","1.9108","0.2938"
"17.1200","1.9142","0.2939"
"17.1600","1.9174","0.2947"
"17.2000","1.9208","0.2958"
"17.2400","1.9241","0.2964"
"17.2800","1.9275","0.2970"
"17.3200","1.9308","0.2974"
"17.3600","1.9341","0.2981"
"17.4000","1.9374","0.2986"
"17.4400","1.9409","0.2992"
"17.4800","1.9441","0.2998"
"17.5200","1.9476","0.3003"
"17.5600","1.9509","0.3012"
"17.6000","1.9541","0.3018"
"17.6400","1.9576","0.3024"
"17.6800","1.9608","0.3030"
"17.7200","1.9642","0.3033"
"17.7600","1.9675","0.3039"
"17.8000","1.9709","0.3045"
"17.8400","1.9743","0.3050"
"17.8800","1.9775","0.3064"
"17.9200","1.9808","0.3068"
"17.9600","1.9842","0.3070"
"18.0000","1.9876","0.3077"
"18.0400","1.9908","0.3085"
"18.0800","1.9943","0.3087"
"18.1200","1.9976","0.3100"
"18.1600","2.0009","0.3105"
"18.2000","2.0042","0.3110"
"18.2400","2.0076","0.3114"
"18.2800","2.0110","0.3122"
"18.3200","2.0141","0.3126"
"18.3600","2.0175","0.3132"
"18.4000","2.0209","0.3137"
"18.4400","2.0242","0.3145"
"18.4800","2.0274","0.3151"
"18.5200","2.0309","0.3157"
"18.5600","2.0343","0.3160"
"18.6000","2.0375","0.3171"
"18.6400","2.0408","0.3175"
"18.6800","2.0441","0.3179"
"18.7200","2.0476","0.3185"
"18.7600","2.0507","0.3193"
"18.8000","2.0541","0.3199"
"18.8400","2.0576","0.3205"
"18.8800","2.0608","0.3212"
"18.9200","2.0642","0.3217"
"18.9600","2.0676","0.3223"
"19.0000","2.0709","0.3228"
"19.0400","2.0742","0.3234"
"19.0800","2.0775","0.3240"
"19.1200","2.0809","0.3244"
"19.1600","2.0843","0.3251"
"19.2000","2.0874","0.3255"
"19.2400","2.0908","0.3264"
"19.2800","2.0943","0.3272"
"19.3200","2.0974","0.3273"
"19.3600","2.1008","0.3282"
"19.4000","2.1041","0.3288"
"19.4400","2.1075","0.3288"
"19.4800","2.1108","0.3298"
"19.5200","2.1141","0.3299"
"19.5600","2.1176","0.3311"
"19.6000","2.1208","0.3315"
"19.6400","2.1241","0.3323"
"19.6800","2.1275","0.3331"
"19.7200","2.1309","0.3337"
"19.7600","2.1341","0.3338"
"19.8000","2.1376","0.3344"
"19.8400","2.1409","0.3348"
"19.8800","2.1442","0.3356"
"19.9200","2.1475","0.3362"
"19.9600","2.1508","0.3368"
"20.0000","2.1543","0.3376"
"20.0400","2.1574","0.3382"
"20.0800","2.1608","0.3386"
"20.1200","2.1642","0.3391"
"20.1600","2.1674","0.3399"
"20.2000","2.1709","0.3406"
"20.2400","2.1742","0.3412"
"20.2800","2.1776","0.3415"
"20.3200","2.1808","0.3420"
"20.3600","2.1841","0.3428"
"20.4000","2.1874","0.3430"
"20.4400","2.1909","0.3439"
"20.4800","2.1941","0.3445"
"20.5200","2.1975","0.3452"
"20.5600","2.2009","0.3456"
"20.6000","2.2041","0.3466"
"20.6400","2.2076","0.3468"
"20.6800","2.2108","0.3473"
"20.7200","2.2143","0.3478"
"20.7600","2.2175","0.3484"
"20.8000","2.2208","0.3491"
"20.8400","2.2243","0.3497"
"20.8800","2.2274","0.3503"
"20.9200","2.2308","0.3512"
"20.9600","2.2342","0.3515"
"21.0000","2.2376","0.3520"
"21.0400","2.2408","0.3527"
"21.0800","2.2443","0.3532"
"21.1200","2.2476","0.3537"
"21.1600","2.2509","0.3543"
"21.2000","2.2542","0.3546"
"21.2400","2.2576","0.3554"
"21.2800","2.2610","0.3561"
"21.3200","2.2641","0.3566"
"21.3600","2.2675","0.3571"
"21.4000","2.2709","0.3575"
"21.4400","2.2742","0.3585"
"21.4800","2.2774","0.3587"
"21.5200","2.2809","0.3593"
"21.5600","2.2843","0.3600"
"21.6000","2.2875","0.3605"
"21.6400","2.2908","0.3612"
"21.6800","2.2942","0.3616"
"21.7200","2.2976","0.3622"
"21.7600","2.3007","0.3629"
"21.8000","2.3042","0.3637"
"21.8400","2.3076","0.3641"
"21.8800","2.3108","0.3647"
"21.9200","2.3142","0.3652"
"21.9600","2.3175","0.3655"
"22.0000","2.3209","0.3663"
"22.0400","2.3242","0.3670"
"22.0800","2.3275","0.3676"
"22.1200","2.3309","0.3678"
"22.1600","2.3343","0.3687"
"22.2000","2.3374","0.3690"
"22.2400","2.3409","0.3699"
"22.2800","2.3443","0.3701"
"22.3200","2.3474","0.3707"
"22.3600","2.3508","0.3717"
"22.4000","2.3541","0.3722"
"22.4400","2.3575","0.3725"
"22.4800","2.3608","0.3730"
"22.5200","2.3641","0.3737"
"22.5600","2.3676","0.3744"
"22.6000","2.3708","0.3751"
"22.6400","2.3741","0.3754"
"22.6800","2.3776","0.3759"
"22.7200","2.3809","0.3766"
"22.7600","2.3841","0.3769"
"22.8000","2.3875","0.3774"
"22.8400","2.3909","0.3781"
"22.8800","2.3942","0.3786"
"22.9200","2.3975","0.3796"
"22.9600","2.4008","0.3796"
"23.0000","2.4043","0.3808"
"23.0400","2.4074","0.3813"
"23.0800","2.4108","0.3818"
"23.1200","2.4141","0.3822"
"23.1600","2.4174","0.3826"
"23.2000","2.4208","0.3835"
"23.2400","2.4241","0.3843"
"23.2800","2.4276","0.3847"
"23.3200","2.4308","0.3849"
"23.3600","2.4341","0.3857"
"23.4000","2.4375","0.3864"
"23.4400","2.4409","0.3873"
"23.4800","2.4441","0.3874"
"23.5200","2.4476","0.3881"
"23.5600","2.4509","0.3887"
"23.6000","2.4541","0.3892"
"23.6400","2.4576","0.3899"
"23.6800","2.4608","0.3902"
"23.7200","2.4643","0.3906"
"23.7600","2.4675","0.3913"
"23.8000","2.4709","0.3917"
"23.8400","2.4743","0.3925"
"23.8800","2.4775","0.3932"
"23.9200","2.4808","0.3938"
"23.9600","2.4842","0.3943"
"24.0000","2.4876","0.3948"
"24.0400","2.4907","0.3953"
"24.0800","2.4942","0.3963"
"24.1200","2.4975","0.3967"
"24.1600","2.5009","0.3971"
"24.2000","2.5042","0.3975"
"24.2400","2.5076","0.3984"
"24.2800","2.5111","0.3991"
"24.3200","2.5141","0.3997"
"24.3600","2.5175","0.4000"
"24.4000","2.5209","0.4004"
"24.4400","2.5242","0.4015"
"24.4800","2.5274","0.4020"
"24.5200","2.5309","0.4022"
"24.5600","2.5342","0.4024"
"24.6000","2.5374","0.4035"
"24.6400","2.5408","0.4038"
"24.6800","2.5441","0.4042"
"24.7200","2.5476","0.4048"
"24.7600","2.5507","0.4057"
"24.8000","2.5541","0.4063"
"24.8400","2.5576","0.4067"
"24.8800","2.5608","0.4071"
"24.9200","2.5642","0.4079"
"24.9600","2.5676","0.4083"
"25.0000","2.5709","0.4090"
"25.0400","2.5741","0.4094"
"25.0800","2.5774","0.4098"
"25.1200","2.5808","0.4106"
"25.1600","2.5842","0.4116"
"25.2000","2.5874","0.4119"
"25.2400","2.5908","0.4121"
"25.2800","2.5942","0.4124"
"25.3200","2.5974","0.4136"
"25.3600","2.6009","0.4143"
"25.4000","2.6041","0.4143"
"25.4400","2.6076","0.4149"
"25.4800","2.6108","0.4154"
"25.5200","2.6141","0.4165"
"25.5600","2.6176","0.4169"
"25.6000","2.6208","0.4173"
"25.6400","2.6241","0.4178"
"25.6800","2.6275","0.4185"
"25.7200","2.6309","0.4194"
"25.7600","2.6341","0.4198"
"25.8000","2.6376","0.4200"
"25.8400","2.6409","0.4207"
"25.8800","2.6442","0.4211"
"25.9200","2.6475","0.4218"
"25.9600","2.6508","0.4225"
"26.0000","2.6543","0.4230"
"26.0400","2.6574","0.4233"
"26.0800","2.6608","0.4242"
"26.1200","2.6642","0.4244"
"26.1600","2.6674","0.4251"
"26.2000","2.6708","0.4258"
"26.2400","2.6742","0.4263"
"26.2800","2.6776","0.4269"
"26.3200","2.6808","0.4274"
"26.3600","2.6842","0.4278"
"26.4000","2.6875","0.4284"
"26.4400","2.6909","0.4290"
"26.4800","2.6941","0.4297"
"26.5200","2.6975","0.4301"
"26.5600","2.7009","0.4306"
"26.6000","2.7041","0.4311"
"26.6400","2.7076","0.4317"
"26.6800","2.7108","0.4322"
"26.7200","2.7142","0.4324"
"26.7600","2.7174","0.4333"
"26.8000","2.7208","0.4338"
"26.8400","2.7242","0.4344"
"26.8800","2.7274","0.4346"
"26.9200","2.7308","0.4356"
"26.9600","2.7342","0.4360"
"27.0000","2.7376","0.4366"
"27.0400","2.7408","0.4369"
"27.0800","2.7443","0.4371"
"27.1200","2.7476","0.4379"
"27.1600","2.7509","0.4385"
"27.2000","2.7543","0.4392"
"27.2400","2.7576","0.4397"
"27.2800","2.7610","0.4402"
"27.3200","2.7641","0.4409"
"27.3600","2.7675","0.4415"
"27.4000","2.7709","0.4418"
"27.4400","2.7742","0.4427"
"27.4800","2.7774","0.4430"
"27.5200","2.7809","0.4431"
"27.5600","2.7842","0.4439"
"27.6000","2.7875","0.4445"
"27.6400","2.7908","0.4448"
"27.6800","2.7941","0.4452"
"27.7200","2.7976","0.4460"
"27.7600","2.8007","0.4467"
"27.8000","2.8041","0.4472"
"27.8400","2.8076","0.4475"
"27.8800","2.8108","0.4482"
"27.9200","2.8142","0.4486"
"27.9600","2.8175","0.4494"
"28.0000","2.8209","0.4499"
"28.0400","2.8242","0.4503"
"28.0800","2.8275","0.4507"
"28.1200","2.8309","0.4510"
"28.1600","2.8342","0.4521"
"28.2000","2.8374","0.4526"
"28.2400","2.8408","0.4531"
"28.2800","2.8442","0.4532"
"28.3200","2.8474","0.4536"
"28.3600","2.8508","0.4547"
"28.4000","2.8541","0.4550"
"28.4400","2.8575","0.4556"
"28.4800","2.8608","0.4562"
"28.5200","2.8641","0.4564"
"28.5600","2.8676","0.4572"
"28.6000","2.8708","0.4582"
"28.6400","2.8741","0.4583"
"28.6800","2.8775","0.4587"
"28.7200","2.8809","0.4593"
"28.7600","2.8841","0.4597"
"28.8000","2.8875","0.4601"
"28.8400","2.8908","0.4611"
"28.8800","2.8941","0.4613"
"28.9200","2.8975","0.4620"
"28.9600","2.9008","0.4626"
"29.0000","2.9043","0.4630"
"29.0400","2.9074","0.4633"
"29.0800","2.9108","0.4643"
"29.1200","2.9142","0.4644"
"29.1600","2.9174","0.4648"
"29.2000","2.9208","0.4656"
"29.2400","2.9242","0.4658"
"29.2800","2.9276","0.4664"
"29.3200","2.9308","0.4672"
"29.3600","2.9341","0.4675"
"29.4000","2.9374","0.4680"
"29.4400","2.9409","0.4688"
"29.4800","2.9441","0.4692"
"29.5200","2.9476","0.4697"
"29.5600","2.9509","0.4706"
"29.6000","2.9541","0.4713"
"29.6400","2.9576","0.4716"
"29.6800","2.9608","0.4721"
"29.7200","2.9642","0.4723"
"29.7600","2.9675","0.4728"
"29.8000","2.9708","0.4731"
"29.8400","2.9742","0.4739"
"29.8800","2.9774","0.4749"
"29.9200","2.9808","0.4751"
"29.9600","2.9842","0.4754"
"30.0000","2.9876","0.4757"
"30.0400","2.9908","0.4767"
"30.0800","2.9943","0.4769"
"30.1200","2.9975","0.4776"
"30.1600","3.0009","0.4783"
"30.2000","3.0043","0.4788"
"30.2400","3.0076","0.4790"
"30.2800","3.0110","0.4798"
"30.3200","3.0141","0.4802"
"30.3600","3.0174","0.4807"
"30.4000","3.0209","0.4812"
"30.4400","3.0242","0.4818"
"30.4800","3.0274","0.4823"
"30.5200","3.0309","0.4830"
"30.5600","3.0343","0.4834"
"30.6000","3.0375","0.4838"
"30.6400","3.0408","0.4843"
"30.6800","3.0441","0.4848"
"30.7200","3.0476","0.4853"
"30.7600","3.0507","0.4859"
"30.8000","3.0541","0.4868"
"30.8400","3.0576","0.4874"
"30.8800","3.0608","0.4880"
"30.9200","3.0642","0.4882"
"30.9600","3.0676","0.4886"
"31.0000","3.0709","0.4892"
"31.0400","3.0741","0.4898"
"31.0800","3.0774","0.4901"
"31.1200","3.0808","0.4910"
"31.1600","3.0842","0.4916"
"31.2000","3.0874","0.4921"
"31.2400","3.0908","0.4929"
"31.2800","3.0942","0.4932"
"31.3200","3.0974","0.4936"
"31.3600","3.1008","0.4941"
"31.4000","3.1041","0.4946"
"31.4400","3.1075","0.4953"
"31.4800","3.1108","0.4956"
"31.5200","3.1141","0.4961"
"31.5600","3.1176","0.4967"
"31.6000","3.1208","0.4976"
"31.6400","3.1241","0.4983"
"31.6800","3.1275","0.4984"
"31.7200","3.1309","0.4991"
"31.7600","3.1341","0.4992"
"31.8000","3.1376","0.4999"
"31.8400","3.1409","0.5004"
"31.8800","3.1442","0.5011"
"31.9200","3.1475","0.5014"
"31.9600","3.1508","0.5023"
"32.0000","3.1543","0.5025"
"32.0400","3.1574","0.5034"
"32.0800","3.1607","0.5039"
"32.1200","3.1642","0.5041"
"32.1600","3.1674","0.5050"
"32.2000","3.1708","0.5054"
"32.2400","3.1742","0.5059"
"32.2800","3.1775","0.5063"
"32.3200","3.1808","0.5074"
"32.3600","3.1841","0.5074"
"32.4000","3.1874","0.5079"
"32.4400","3.1909","0.5088"
"32.4800","3.1941","0.5087"
"32.5200","3.1976","0.5094"
"32.5600","3.2009","0.5104"
"32.6000","3.2041","0.5104"
"32.6400","3.2076","0.5110"
"32.6800","3.2108","0.5117"
"32.7200","3.2142","0.5120"
"32.7600","3.2174","0.5125"
"32.8000","3.2208","0.5133"
"32.8400","3.2243","0.5132"
"32.8800","3.2275","0.5144"
"32.9200","3.2308","0.5146"
"32.9600","3.2343","0.5153"
"33.0000","3.2376","0.5159"
"33.0400","3.2408","0.5163"
"33.0800","3.2443","0.5165"
"33.1200","3.2475","0.5173"
"33.1600","3.2509","0.5177"
"33.2000","3.2542","0.5181"
"33.2400","3.2576","0.5187"
"33.2800","3.2610","0.5193"
"33.3200","3.2641","0.5195"
"33.3600","3.2675","0.5201"
"33.4000","3.2709","0.5206"
"33.4400","3.2742","0.5215"
"33.4800","3.2774","0.5219"
"33.5200","3.2809","0.5222"
"33.5600","3.2843","0.5228"
"33.6000","3.2875","0.5233"
"33.6400","3.2908","0.5240"
"33.6800","3.2941","0.5246"
"33.7200","3.2976","0.5250"
"33.7600","3.3007","0.5253"
"33.8000","3.3041","0.5256"
"33.8400","3.3076","0.5264"
"33.8800","3.3108","0.5267"
"33.9200","3.3143","0.5268"
"33.9600","3.3176","0.5279"
"34.0000","3.3209","0.5285"
"34.0400","3.3242","0.5293"
"34.0800","3.3275","0.5294"
"34.1200","3.3309","0.5297"
"34.1600","3.3342","0.5304"
"34.2000","3.3374","0.5308"
"34.2400","3.3408","0.5315"
"34.2800","3.3442","0.5317"
"34.3200","3.3474","0.5323"
"34.3600","3.3508","0.5331"
"34.4000","3.3541","0.5335"
"34.4400","3.3576","0.5339"
"34.4800","3.3608","0.5346"
"34.5200","3.3641","0.5349"
"34.5600","3.3676","0.5355"
"34.6000","3.3708","0.5360"
"34.6400","3.3741","0.5363"
"34.6800","3.3776","0.5369"
"34.7200","3.3809","0.5375"
"34.7600","3.3841","0.5379"
"34.8000","3.3876","0.5385"
"34.8400","3.3908","0.5390"
"34.8800","3.3942","0.5393"
"34.9200","3.3975","0.5396"
"34.9600","3.4008","0.5401"
"35.0000","3.4042","0.5409"
"35.0400","3.4074","0.5416"
"35.0800","3.4108","0.5420"
"35.1200","3.4142","0.5424"
"35.1600","3.4174","0.5427"
"35.2000","3.4208","0.5436"
"35.2400","3.4241","0.5440"
"35.2800","3.4275","0.5445"
"35.3200","3.4308","0.5452"
"35.3600","3.4341","0.5455"
"35.4000","3.4374","0.5460"
"35.4400","3.4409","0.5466"
"35.4800","3.4441","0.5467"
"35.5200","3.4475","0.5473"
"35.5600","3.4509","0.5485"
"35.6000","3.4541","0.5484"
"35.6400","3.4576","0.5487"
"35.6800","3.4608","0.5493"
"35.7200","3.4642","0.5502"
"35.7600","3.4675","0.5503"
"35.8000","3.4708","0.5508"
"35.8400","3.4743","0.5511"
"35.8800","3.4775","0.5519"
"35.9200","3.4808","0.5525"
"35.9600","3.4842","0.5527"
"36.0000","3.4875","0.5531"
"36.0400","3.4908","0.5538"
"36.0800","3.4943","0.5537"
"36.1200","3.4975","0.5543"
"36.1600","3.5009","0.5554"
"36.2000","3.5043","0.5559"
"36.2400","3.5076","0.5563"
"36.2800","3.5110","0.5568"
"36.3200","3.5141","0.5572"
"36.3600","3.5175","0.5573"
"36.4000","3.5209","0.5583"
"36.4400","3.5242","0.5587"
"36.4800","3.5274","0.5590"
"36.5200","3.5309","0.5593"
"36.5600","3.5343","0.5604"
"36.6000","3.5375","0.5609"
"36.6400","3.5408","0.5612"
"36.6800","3.5441","0.5614"
"36.7200","3.5476","0.5619"
"36.7600","3.5507","0.5628"
"36.8000","3.5541","0.5631"
"36.8400","3.5576","0.5632"
"36.8800","3.5608","0.5641"
"36.9200","3.5642","0.5641"
"36.9600","3.5675","0.5649"
"37.0000","3.5709","0.5654"
"37.0400","3.5742","0.5660"
"37.0800","3.5775","0.5663"
"37.1200","3.5809","0.5668"
"37.1600","3.5842","0.5674"
"37.2000","3.5875","0.5678"
"37.2400","3.5909","0.5682"
"37.2800","3.5942","0.5685"
"37.3200","3.5974","0.5691"
"37.3600","3.6008","0.5700"
"37.4000","3.6041","0.5700"
"37.4400","3.6075","0.5706"
"37.4800","3.6108","0.5710"
"37.5200","3.6141","0.5716"
"37.5600","3.6176","0.5720"
"37.6000","3.6208","0.5726"
"37.6400","3.6241","0.5732"
"37.6800","3.6276","0.5734"
"37.7200","3.6309","0.5743"
"37.7600","3.6341","0.5749"
"37.8000","3.6376","0.5748"
"37.8400","3.6409","0.5753"
"37.8800","3.6442","0.5757"
"37.9200","3.6475","0.5764"
"37.9600","3.6507","0.5767"
"38.0000","3.6543","0.5771"
"38.0400","3.6574","0.5780"
"38.0800","3.6608","0.5784"
"38.1200","3.6642","0.5788"
"38.1600","3.6675","0.5796"
"38.2000","3.6709","0.5795"
"38.2400","3.6742","0.5804"
"38.2800","3.6776","0.5806"
"38.3200","3.6808","0.5812"
"38.3600","3.6841","0.5819"
"38.4000","3.6875","0.5823"
"38.4400","3.6909","0.5831"
"38.4800","3.6941","0.5832"
"38.5200","3.6975","0.5837"
"38.5600","3.7009","0.5841"
"38.6000","3.7041","0.5844"
"38.6400","3.7076","0.5855"
"38.6800","3.7108","0.5858"
"38.7200","3.7142","0.5863"
"38.7600","3.7175","0.5866"
"38.8000","3.7208","0.5871"
"38.8400","3.7242","0.5874"
"38.8800","3.7275","0.5881"
"38.9200","3.7308","0.5888"
"38.9600","3.7342","0.5889"
"39.0000","3.7376","0.5897"
"39.0400","3.7407","0.5900"
"39.0800","3.7442","0.5905"
"39.1200","3.7475","0.5908"
"39.1600","3.7509","0.5916"
"39.2000","3.7543","0.5921"
"39.2400","3.7576","0.5922"
"39.2800","3.7611","0.5931"
"39.3200","3.7641","0.5932"
"39.3600","3.7675","0.5937"
"39.4000","3.7709","0.5944"
"39.4400","3.7742","0.5950"
"39.4800","3.7774","0.5953"
"39.5200","3.7808","0.5963"
"39.5600","3.7841","0.5963"
"39.6000","3.7874","0.5965"
"39.6400","3.7907","0.5972"
"39.6800","3.7941","0.5976"
"39.7200","3.7976","0.5982"
"39.7600","3.8007","0.5986"
"39.8000","3.8042","0.5992"
"39.8400","3.8076","0.5996"
"39.8800","3.8108","0.6000"
"39.9200","3.8142","0.6006"
"39.9600","3.8176","0.6014"
"40.0000","3.8209","0.6016"
"40.0400","3.8242","0.6021"
"40.0800","3.8274","0.6024"
"40.1200","3.8308","0.6028"
"40.1600","3.8343","0.6034"
"40.2000","3.8374","0.6041"
"40.2400","3.8408","0.6041"
"40.2800","3.8442","0.6045"
"40.3200","3.8474","0.6053"
"40.3600","3.8509","0.6061"
"40.4000","3.8541","0.6065"
"40.4400","3.8576","0.6069"
"40.4800","3.8608","0.6075"
"40.5200","3.8641","0.6077"
"40.5600","3.8676","0.6083"
"40.6000","3.8708","0.6087"
"40.6400","3.8741","0.6092"
"40.6800","3.8776","0.6100"
"40.7200","3.8809","0.6104"
"40.7600","3.8842","0.6110"
"40.8000","3.8876","0.6111"
"40.8400","3.8909","0.6115"
"40.8800","3.8942","0.6123"
"40.9200","3.8975","0.6126"
"40.9600","3.9008","0.6132"
"41.0000","3.9042","0.6136"
"41.0400","3.9074","0.6142"
"41.0800","3.9108","0.6147"
"41.1200","3.9142","0.6147"
"41.1600","3.9174","0.6156"
"41.2000","3.9208","0.6160"
"41.2400","3.9241","0.6163"
"41.2800","3.9275","0.6166"
"41.3200","3.9308","0.6174"
"41.3600","3.9342","0.6180"
"41.4000","3.9375","0.6184"
"41.4400","3.9409","0.6188"
"41.4800","3.9441","0.6191"
"41.5200","3.9476","0.6196"
"41.5600","3.9509","0.6203"
"41.6000","3.9541","0.6208"
"41.6400","3.9576","0.6212"
"41.6800","3.9608","0.6217"
"41.7200","3.9642","0.6221"
"41.7600","3.9674","0.6225"
"41.8000","3.9708","0.6232"
"41.8400","3.9743","0.6237"
"41.8800","3.9774","0.6242"
"41.9200","3.9808","0.6248"
"41.9600","3.9842","0.6249"
"42.0000","3.9876","0.6257"
"42.0400","3.9908","0.6264"
"42.0800","3.9943","0.6261"
"42.1200","3.9975","0.6268"
"42.1600","4.0009","0.6275"
"42.2000","4.0042","0.6279"
"42.2400","4.0075","0.6285"
"42.2800","4.0109","0.6288"
"42.3200","4.0141","0.6293"
"42.3600","4.0175","0.6299"
"42.4000","4.0209","0.6303"
"42.4400","4.0242","0.6305"
"42.4800","4.0275","0.6314"
"42.5200","4.0309","0.6314"
"42.5600","4.0343","0.6321"
"42.6000","4.0375","0.6326"
"42.6400","4.0408","0.6333"
"42.6800","4.0441","0.6333"
"42.7200","4.0476","0.6338"
"42.7600","4.0507","0.6344"
"42.8000","4.0541","0.6349"
"42.8400","4.0576","0.6352"
"42.8800","4.0608","0.6356"
"42.9200","4.0642","0.6362"
"42.9600","4.0676","0.6367"
"43.0000","4.0709","0.6370"
"43.0400","4.0742","0.6374"
"43.0800","4.0775","0.6381"
"43.1200","4.0809","0.6389"
"43.1600","4.0843","0.6393"
"43.2000","4.0874","0.6394"
"43.2400","4.0909","0.6401"
"43.2800","4.0943","0.6403"
"43.3200","4.0974","0.6408"
"43.3600","4.1008","0.6413"
"43.4000","4.1041","0.6419"
"43.4400","4.1075","0.6422"
"43.4800","4.1108","0.6425"
"43.5200","4.1141","0.6430"
"43.5600","4.1176","0.6433"
"43.6000","4.1208","0.6440"
"43.6400","4.1241","0.6447"
"43.6800","4.1276","0.6451"
"43.7200","4.1309","0.6455"
"43.7600","4.1341","0.6457"
"43.8000","4.1376","0.6463"
"43.8400","4.1408","0.6470"
"43.8800","4.1442","0.6478"
"43.9200","4.1475","0.6481"
"43.9600","4.1508","0.6484"
"44.0000","4.1543","0.6487"
"44.0400","4.1574","0.6493"
"44.0800","4.1608","0.6497"
"44.1200","4.1642","0.6499"
"44.1600","4.1674","0.6507"
"44.2000","4.1708","0.6511"
"44.2400","4.1742","0.6516"
"44.2800","4.1776","0.6518"
"44.3200","4.1808","0.6524"
"44.3600","4.1841","0.6529"
"44.4000","4.1874","0.6530"
"44.4400","4.1909","0.6537"
"44.4800","4.1941","0.6542"
"44.5200","4.1976","0.6548"
"44.5600","4.2009","0.6555"
"44.6000","4.2041","0.6556"
"44.6400","4.2076","0.6556"
"44.6800","4.2108","0.6566"
"44.7200","4.2142","0.6571"
"44.7600","4.2175","0.6576"
"44.8000","4.2209","0.6576"
"44.8400","4.2243","0.6587"
"44.8800","4.2275","0.6589"
"44.9200","4.2308","0.6591"
"44.9600","4.2342","0.6597"
"45.0000","4.2376","0.6603"
"45.0400","4.2408","0.6606"
"45.0800","4.2443","0.6606"
"45.1200","4.2475","0.6614"
"45.1600","4.2509","0.6622"
"45.2000","4.2543","0.6626"
"45.2400","4.2576","0.6631"
"45.2800","4.2611","0.6633"
"45.3200","4.2641","0.6641"
"45.3600","4.2675","0.6646"
"45.4000","4.2709","0.6653"
"45.4400","4.2742","0.6654"
"45.4800","4.2774","0.6656"
"45.5200","4.2809","0.6664"
"45.5600","4.2842","0.6664"
"45.6000","4.2874","0.6669"
"45.6400","4.2908","0.6674"
"45.6800","4.2941","0.6676"
"45.7200","4.2976","0.6683"
"45.7600","4.3008","0.6690"
"45.8000","4.3042","0.6687"
"45.8400","4.3076","0.6695"
"45.8800","4.3108","0.6702"
"45.9200","4.3142","0.6708"
"45.9600","4.3175","0.6712"
"46.0000","4.3209","0.6715"
"46.0400","4.3241","0.6719"
"46.0800","4.3275","0.6724"
"46.1200","4.3309","0.6730"
"46.1600","4.3342","0.6733"
"46.2000","4.3374","0.6736"
"46.2400","4.3409","0.6742"
"46.2800","4.3443","0.6746"
"46.3200","4.3474","0.6749"
"46.3600","4.3508","0.6755"
"46.4000","4.3541","0.6761"
"46.4400","4.3575","0.6764"
"46.4800","4.3608","0.6769"
"46.5200","4.3641","0.6772"
"46.5600","4.3676","0.6775"
"46.6000","4.3708","0.6782"
"46.6400","4.3741","0.6786"
"46.6800","4.3775","0.6787"
"46.7200","4.3809","0.6794"
"46.7600","4.3841","0.6798"
"46.8000","4.3876","0.6802"
"46.8400","4.3909","0.6809"
"46.8800","4.3942","0.6812"
"46.9200","4.3975","0.6816"
"46.9600","4.4008","0.6822"
"47.0000","4.4043","0.6826"
"47.0400","4.4074","0.6833"
"47.0800","4.4108","0.6837"
"47.1200","4.4142","0.6839"
"47.1600","4.4174","0.6846"
"47.2000","4.4209","0.6848"
"47.2400","4.4242","0.6853"
"47.2800","4.4276","0.6858"
"47.3200","4.4308","0.6863"
"47.3600","4.4342","0.6864"
"47.4000","4.4375","0.6868"
"47.4400","4.4409","0.6878"
"47.4800","4.4441","0.6878"
"47.5200","4.4476","0.6886"
"47.5600","4.4509","0.6889"
"47.6000","4.4541","0.6895"
"47.6400","4.4575","0.6899"
"47.6800","4.4608","0.6903"
"47.7200","4.4642","0.6906"
"47.7600","4.4675","0.6913"
"47.8000","4.4708","0.6917"
"47.8400","4.4742","0.6920"
"47.8800","4.4774","0.6925"
"47.9200","4.4808","0.6929"
"47.9600","4.4842","0.6933"
"48.0000","4.4876","0.6940"
"48.0400","4.4907","0.6939"
"48.0800","4.4943","0.6943"
"48.1200","4.4975","0.6948"
"48.1600","4.5008","0.6957"
"48.2000","4.5042","0.6962"
"48.2400","4.5075","0.6966"
"48.2800","4.5109","0.6970"
"48.3200","4.5141","0.6974"
"48.3600","4.5174","0.6978"
"48.4000","4.5209","0.6986"
"48.4400","4.5242","0.6987"
"48.4800","4.5274","0.6990"
"48.5200","4.5309","0.6999"
"48.5600","4.5343","0.7001"
"48.6000","4.5375","0.7005"
"48.6400","4.5408","0.7010"
"48.6800","4.5441","0.7013"
"48.7200","4.5476","0.7020"
"48.7600","4.5507","0.7024"
"48.8000","4.5542","0.7030"
"48.8400","4.5576","0.7031"
"48.8800","4.5608","0.7037"
"48.9200","4.5642","0.7038"
"48.9600","4.5676","0.7045"
"49.0000","4.5709","0.7055"
"49.0400","4.5742","0.7055"
"49.0800","4.5775","0.7060"
"49.1200","4.5808","0.7063"
"49.1600","4.5842","0.7068"
"49.2000","4.5874","0.7073"
"49.2400","4.5908","0.7076"
"49.2800","4.5943","0.7078"
"49.3200","4.5974","0.7083"
"49.3600","4.6009","0.7088"
"49.4000","4.6041","0.7093"
"49.4400","4.6075","0.7097"
"49.4800","4.6108","0.7102"
"49.5200","4.6141","0.7109"
"49.5600","4.6176","0.7111"
"49.6000","4.6208","0.7119"
"49.6400","4.6241","0.7118"
"49.6800","4.6275","0.7122"
"49.7200","4.6309","0.7127"
"49.7600","4.6341","0.7132"
"49.8000","4.6375","0.7139"
"49.8400","4.6408","0.7142"
"49.8800","4.6442","0.7147"
"49.9200","4.6475","0.7148"
"49.9600","4.6508","0.7156"
"50.0000","4.6543","0.7162"
"50.0400","4.6574","0.7164"
"50.0800","4.6608","0.7168"
"50.1200","4.6642","0.7172"
"50.1600","4.6674","0.7182"
"50.2000","4.6708","0.7182"
"50.2400","4.6742","0.7188"
"50.2800","4.6775","0.7193"
"50.3200","4.6808","0.7199"
"50.3600","4.6841","0.7197"
"50.4000","4.6874","0.7204"
"50.4400","4.6909","0.7208"
"50.4800","4.6941","0.7210"
"50.5200","4.6976","0.7214"
"50.5600","4.7009","0.7221"
"50.6000","4.7041","0.7222"
"50.6400","4.7076","0.7227"
"50.6800","4.7108","0.7231"
"50.7200","4.7142","0.7236"
"50.7600","4.7174","0.7243"
"50.8000","4.7208","0.7247"
"50.8400","4.7242","0.7249"
"50.8800","4.7274","0.7254"
"50.9200","4.7308","0.7263"
"50.9600","4.7343","0.7265"
"51.0000","4.7376","0.7266"
"51.0400","4.7408","0.7272"
"51.0800","4.7443","0.7277"
"51.1200","4.7476","0.7282"
"51.1600","4.7509","0.7288"
"51.2000","4.7543","0.7295"
"51.2400","4.7576","0.7296"
"51.2800","4.7610","0.7301"
"51.3200","4.7641","0.7302"
"51.3600","4.7674","0.7308"
"51.4000","4.7709","0.7312"
"51.4400","4.7741","0.7317"
"51.4800","4.7774","0.7324"
"51.5200","4.7809","0.7327"
"51.5600","4.7842","0.7331"
"51.6000","4.7875","0.7333"
"51.6400","4.7908","0.7339"
"51.6800","4.7941","0.7346"
"51.7200","4.7976","0.7348"
"51.7600","4.8007","0.7353"
"51.8000","4.8042","0.7356"
"51.8400","4.8076","0.7365"
"51.8800","4.8108","0.7367"
"51.9200","4.8142","0.7371"
"51.9600","4.8175","0.7376"
"52.0000","4.8209","0.7378"
"52.0400","4.8242","0.7383"
"52.0800","4.8275","0.7386"
"52.1200","4.8309","0.7392"
"52.1600","4.8343","0.7395"
"52.2000","4.8375","0.7397"
"52.2400","4.8409","0.7409"
"52.2800","4.8443","0.7407"
"52.3200","4.8474","0.7410"
"52.3600","4.8508","0.7418"
"52.4000","4.8541","0.7423"
"52.4400","4.8574","0.7425"
"52.4800","4.8608","0.7427"
"52.5200","4.8641","0.7434"
"52.5600","4.8676","0.7435"
"52.6000","4.8708","0.7445"
"52.6400","4.8741","0.7449"
"52.6800","4.8776","0.7452"
"52.7200","4.8809","0.7460"
"52.7600","4.8841","0.7460"
"52.8000","4.8876","0.7466"
"52.8400","4.8908","0.7470"
"52.8800","4.8942","0.7470"
"52.9200","4.8975","0.7480"
"52.9600","4.9007","0.7486"
"53.0000","4.9043","0.7486"
"53.0400","4.9074","0.7491"
"53.0800","4.9108","0.7494"
"53.1200","4.9142","0.7502"
"53.1600","4.9174","0.7504"
"53.2000","4.9209","0.7509"
"53.2400","4.9242","0.7513"
"53.2800","4.9275","0.7516"
"53.3200","4.9307","0.7520"
"53.3600","4.9341","0.7524"
"53.4000","4.9374","0.7531"
"53.4400","4.9409","0.7534"
"53.4800","4.9441","0.7538"
"53.5200","4.9476","0.7543"
"53.5600","4.9509","0.7545"
"53.6000","4.9541","0.7553"
"53.6400","4.9576","0.7555"
"53.6800","4.9608","0.7562"
"53.7200","4.9642","0.7563"
"53.7600","4.9675","0.7567"
"53.8000","4.9709","0.7573"
"53.8400","4.9743","0.7577"
"53.8800","4.9775","0.7581"
"53.9200","4.9808","0.7585"
"53.9600","4.9843","0.7588"
"54.0000","4.9876","0.7594"
"54.0400","4.9907","0.7600"
"54.0800","4.9943","0.7605"
"54.1200","4.9975","0.7606"
"54.1600","5.0009","0.7610"
"54.2000","5.0042","0.7614"
"54.2400","5.0076","0.7619"
"54.2800","5.0110","0.7623"
"54.3200","5.0141","0.7627"
"54.3600","5.0175","0.7634"
"54.4000","5.0209","0.7635"
"54.4400","5.0242","0.7640"
"54.4800","5.0274","0.7645"
"54.5200","5.0309","0.7653"
"54.5600","5.0342","0.7653"
"54.6000","5.0374","0.7656"
"54.6400","5.0408","0.7661"
"54.6800","5.0441","0.7662"
"54.7200","5.0476","0.7672"
"54.7600","5.0507","0.7674"
"54.8000","5.0541","0.7678"
"54.8400","5.0576","0.7684"
"54.8800","5.0608","0.7688"
"54.9200","5.0642","0.7691"
"54.9600","5.0675","0.7697"
"55.0000","5.0709","0.7698"
"55.0400","5.0742","0.7700"
"55.0800","5.0774","0.7701"
"55.1200","5.0808","0.7704"
"55.1600","5.0842","0.7708"
"55.2000","5.0874","0.7710"
"55.2400","5.0909","0.7716"
"55.2800","5.0943","0.7718"
"55.3200","5.0974","0.7721"
"55.3600","5.1009","0.7728"
"55.4000","5.1041","0.7730"
"55.4400","5.1076","0.7733"
"55.4800","5.1108","0.7740"
"55.5200","5.1141","0.7744"
"55.5600","5.1176","0.7747"
"55.6000","5.1208","0.7696"
"55.6400","5.1241","0.7644"
"55.6800","5.1275","0.7605"
"55.7200","5.1309","0.7605"
"55.7600","5.1341","0.7572"
"55.8000","5.1376","0.7547"
"55.8400","5.1408","0.7546"
"55.8800","5.1442","0.7544"
"55.9200","5.1476","0.7549"
"55.9600","5.1508","0.7552"
"56.0000","5.1543","0.7553"
"56.0400","5.1574","0.7555"
"56.0800","5.1608","0.7559"
"56.1200","5.1642","0.7557"
"56.1600","5.1674","0.7566"
"56.2000","5.1708","0.7566"
"56.2400","5.1742","0.7570"
"56.2800","5.1775","0.7574"
"56.3200","5.1808","0.7579"
"56.3600","5.1842","0.7580"
"56.4000","5.1875","0.7581"
"56.4400","5.1909","0.7587"
"56.4800","5.1941","0.7586"
"56.5200","5.1975","0.7593"
"56.5600","5.2009","0.7594"
"56.6000","5.2041","0.7598"
"56.6400","5.2076","0.7607"
"56.6800","5.2108","0.7610"
"56.7200","5.2142","0.7612"
"56.7600","5.2175","0.7616"
"56.8000","5.2209","0.7619"
"56.8400","5.2243","0.7625"
"56.8800","5.2275","0.7627"
"56.9200","5.2308","0.7631"
"56.9600","5.2343","0.7624"
"57.0000","5.2376","0.7588"
"57.0400","5.2407","0.7588"
"57.0800","5.2443","0.7588"
"57.1200","5.2476","0.7595"
"57.1600","5.2509","0.7600"
"57.2000","5.2543","0.7601"
"57.2400","5.2576","0.7605"
"57.2800","5.2610","0.7609"
"57.3200","5.2641","0.7612"
"57.3600","5.2675","0.7612"
"57.4000","5.2709","0.7617"
"57.4400","5.2742","0.7617"
"57.4800","5.2775","0.7620"
"57.5200","5.2809","0.7624"
"57.5600","5.2843","0.7631"
"57.6000","5.2875","0.7635"
"57.6400","5.2908","0.7639"
"57.6800","5.2941","0.7636"
"57.7200","5.2976","0.7643"
"57.7600","5.3007","0.7647"
"57.8000","5.3041","0.7651"
"57.8400","5.3076","0.7656"
"57.8800","5.3108","0.7660"
"57.9200","5.3142","0.7665"
"57.9600","5.3175","0.7667"
"58.0000","5.3209","0.7670"
"58.0400","5.3241","0.7674"
"58.0800","5.3274","0.7680"
"58.1200","5.3308","0.7682"
"58.1600","5.3342","0.7688"
"58.2000","5.3374","0.7693"
"58.2400","5.3409","0.7694"
"58.2800","5.3443","0.7696"
"58.3200","5.3474","0.7704"
"58.3600","5.3508","0.7706"
"58.4000","5.3541","0.7710"
"58.4400","5.3575","0.7718"
"58.4800","5.3608","0.7719"
"58.5200","5.3641","0.7723"
"58.5600","5.3676","0.7728"
"58.6000","5.3708","0.7732"
"58.6400","5.3741","0.7738"
"58.6800","5.3775","0.7741"
"58.7200","5.3809","0.7746"
"58.7600","5.3841","0.7748"
"58.8000","5.3876","0.7750"
"58.8100","5.3884","0.7752"