File: flexural/ES100_Trevor_Flexural_Data_9_1.csv
Specimen text inputs : Specimen text input  1,,""

Results Table 1
,Specimen text input  1
"9","h0_f1"

Results Table 2

Time,Displacement,Force
(s),(mm),(kN)
"0.0000","0.5301","0.0202"
"0.0600","0.5384","0.0212"
"0.1200","0.5401","0.0216"
"0.1800","0.5443","0.0219"
"0.2400","0.5490","0.0222"
"0.3000","0.5539","0.0223"
"0.3600","0.5589","0.0231"
"0.4200","0.5638","0.0232"
"0.4800","0.5688","0.0241"
"0.5400","0.5738","0.0244"
"0.6000","0.5788","0.0244"
"0.6600","0.5839","0.0248"
"0.7200","0.5888","0.0250"
"0.7800","0.5939","0.0254"
"0.8400","0.5987","0.0263"
"0.9000","0.6037","0.0261"
"0.9600","0.6088","0.0267"
"1.0200","0.6138","0.0275"
"1.0800","0.6189","0.0274"
"1.1400","0.6238","0.0281"
"1.2000","0.6289","0.0281"
"1.2600","0.6338","0.0286"
"1.3200","0.6389","0.0293"
"1.3800","0.6439","0.0296"
"1.4400","0.6488","0.0301"
"1.5000","0.6539","0.0302"
"1.5600","0.6587","0.0305"
"1.6200","0.6638","0.0306"
"1.6800","0.6687","0.0314"
"1.7400","0.6738","0.0318"
"1.8000","0.6788","0.0319"
"1.8600","0.6838","0.0326"
"1.9200","0.6889","0.0331"
"1.9800","0.6938","0.0332"
"2.0400","0.6989","0.0337"
"2.1000","0.7038","0.0342"
"2.1600","0.7089","0.0342"
"2.2200","0.7139","0.0347"
"2.2800","0.7188","0.0354"
"2.3400","0.7239","0.0360"
"2.4000","0.7287","0.0361"
"2.4600","0.7339","0.0364"
"2.5200","0.7388","0.0372"
"2.5800","0.7439","0.0372"
"2.6400","0.7489","0.0380"
"2.7000","0.7538","0.0377"
"2.7600","0.7589","0.0384"
"2.8200","0.7638","0.0387"
"2.8800","0.7689","0.0388"
"2.9400","0.7739","0.0397"
"3.0000","0.7789","0.0399"
"3.0600","0.7839","0.0401"
"3.1200","0.7887","0.0408"
"3.1800","0.7938","0.0412"
"3.2400","0.7988","0.0415"
"3.3000","0.8038","0.0419"
"3.3600","0.8089","0.0422"
"3.4200","0.8138","0.0426"
"3.4800","0.8189","0.0428"
"3.5400","0.8238","0.0434"
"3.6000","0.8288","0.0434"
"3.6600","0.8339","0.0440"
"3.7200","0.8388","0.0444"
"3.7800","0.8439","0.0448"
"3.8400","0.8487","0.0454"
"3.9000","0.8538","0.0455"
"3.9600","0.8588","0.0460"
"4.0200","0.8637","0.0462"
"4.0800","0.8689","0.0467"
"4.1400","0.8738","0.0472"
"4.2000","0.8789","0.0471"
"4.2600","0.8838","0.0479"
"4.3200","0.8888","0.0485"
"4.3800","0.8939","0.0486"
"4.4400","0.8988","0.0494"
"4.5000","0.9039","0.0493"
"4.5600","0.9087","0.0498"
"4.6200","0.9138","0.0504"
"4.6800","0.9187","0.0505"
"4.7400","0.9238","0.0509"
"4.8000","0.9288","0.0513"
"4.8600","0.9337","0.0517"
"4.9200","0.9389","0.0521"
"4.9800","0.9437","0.0522"
"5.0400","0.9489","0.0531"
"5.1000","0.9538","0.0531"
"5.1600","0.9589","0.0537"
"5.2200","0.9638","0.0540"
"5.2800","0.9688","0.0546"
"5.3400","0.9738","0.0547"
"5.4000","0.9787","0.0551"
"5.4600","0.9839","0.0555"
"5.5200","0.9888","0.0558"
"5.5800","0.9939","0.0566"
"5.6400","0.9989","0.0569"
"5.7000","1.0039","0.0568"
"5.7600","1.0089","0.0572"
"5.8200","1.0138","0.0580"
"5.8800","1.0189","0.0584"
"5.9400","1.0239","0.0589"
"6.0000","1.0288","0.0589"
"6.0600","1.0339","0.0591"
"6.1200","1.0388","0.0593"
"6.1800","1.0438","0.0599"
"6.2400","1.0489","0.0607"
"6.3000","1.0538","0.0610"
"6.3600","1.0589","0.0612"
"6.4200","1.0638","0.0617"
"6.4800","1.0688","0.0618"
"6.5400","1.0738","0.0625"
"6.6000","1.0788","0.0629"
"6.6600","1.0839","0.0631"
"6.7200","1.0888","0.0636"
"6.7800","1.0939","0.0639"
"6.8400","1.0987","0.0646"
"6.9000","1.1038","0.0646"
"6.9600","1.1088","0.0653"
"7.0200","1.1137","0.0655"
"7.0800","1.1189","0.0663"
"7.1400","1.1237","0.0666"
"7.2000","1.1289","0.0666"
"7.2600","1.1338","0.0672"
"7.3200","1.1388","0.0677"
"7.3800","1.1439","0.0683"
"7.4400","1.1488","0.0686"
"7.5000","1.1539","0.0688"
"7.5600","1.1588","0.0694"
"7.6200","1.1639","0.0700"
"7.6800","1.1688","0.0701"
"7.7400","1.1739","0.0701"
"7.8000","1.1789","0.0710"
"7.8600","1.1838","0.0713"
"7.9200","1.1890","0.0719"
"7.9800","1.1938","0.0719"
"8.0400","1.1989","0.0726"
"8.1000","1.2038","0.0727"
"8.1600","1.2089","0.0733"
"8.2200","1.2139","0.0734"
"8.2800","1.2188","0.0740"
"8.3400","1.2239","0.0746"
"8.4000","1.2287","0.0753"
"8.4600","1.2339","0.0755"
"8.5200","1.2388","0.0755"
"8.5800","1.2439","0.0761"
"8.6400","1.2489","0.0765"
"8.7000","1.2539","0.0768"
"8.7600","1.2589","0.0777"
"8.8200","1.2638","0.0783"
"8.8800","1.2689","0.0781"
"8.9400","1.2739","0.0787"
"9.0000","1.2788","0.0793"
"9.0600","1.2838","0.0795"
"9.1200","1.2887","0.0798"
"9.1800","1.2938","0.0804"
"9.2400","1.2988","0.0810"
"9.3000","1.3038","0.0807"
"9.3600","1.3089","0.0818"
"9.4200","1.3138","0.0819"
"9.4800","1.3189","0.0821"
"9.5400","1.3239","0.0826"
"9.6000","1.3288","0.0825"
"9.6600","1.3339","0.0832"
"9.7200","1.3388","0.0839"
"9.7800","1.3439","0.0840"
"9.8400","1.3488","0.0847"
"9.9000","1.3538","0.0846"
"9.9600","1.3589","0.0856"
"10.0200","1.3638","0.0857"
"10.0800","1.3689","0.0859"
"10.1400","1.3737","0.0865"
"10.2000","1.3789","0.0870"
"10.2600","1.3837","0.0869"
"10.3200","1.3889","0.0877"
"10.3800","1.3939","0.0880"
"10.4400","1.3988","0.0889"
"10.5000","1.4039","0.0887"
"10.5600","1.4088","0.0894"
"10.6200","1.4139","0.0893"
"10.6800","1.4187","0.0899"
"10.7400","1.4239","0.0906"
"10.8000","1.4289","0.0908"
"10.8600","1.4338","0.0909"
"10.9200","1.4390","0.0915"
"10.9800","1.4438","0.0919"
"11.0400","1.4489","0.0924"
"11.1000","1.4538","0.0928"
"11.1600","1.4589","0.0930"
"11.2200","1.4639","0.0932"
"11.2800","1.4688","0.0941"
"11.3400","1.4739","0.0942"
"11.4000","1.4787","0.0946"
"11.4600","1.4839","0.0952"
"11.5200","1.4888","0.0953"
"11.5800","1.4939","0.0957"
"11.6400","1.4989","0.0964"
"11.7000","1.5038","0.0963"
"11.7600","1.5089","0.0964"
"11.8200","1.5138","0.0976"
"11.8800","1.5189","0.0977"
"11.9400","1.5239","0.0980"
"12.0000","1.5289","0.0985"
"12.0600","1.5339","0.0989"
"12.1200","1.5387","0.0989"
"12.1800","1.5438","0.0996"
"12.2400","1.5488","0.1002"
"12.3000","1.5538","0.1004"
"12.3600","1.5589","0.1006"
"12.4200","1.5638","0.1009"
"12.4800","1.5689","0.1015"
"12.5400","1.5738","0.1018"
"12.6000","1.5788","0.1021"
"12.6600","1.5839","0.1025"
"12.7200","1.5888","0.1032"
"12.7800","1.5939","0.1031"
"12.8400","1.5987","0.1039"
"12.9000","1.6037","0.1041"
"12.9600","1.6088","0.1041"
"13.0200","1.6137","0.1052"
"13.0800","1.6189","0.1054"
"13.1400","1.6238","0.1056"
"13.2000","1.6289","0.1060"
"13.2600","1.6338","0.1062"
"13.3200","1.6389","0.1067"
"13.3800","1.6438","0.1071"
"13.4400","1.6488","0.1073"
"13.5000","1.6539","0.1076"
"13.5600","1.6588","0.1083"
"13.6200","1.6638","0.1085"
"13.6800","1.6687","0.1090"
"13.7400","1.6738","0.1097"
"13.8000","1.6788","0.1095"
"13.8600","1.6838","0.1100"
"13.9200","1.6889","0.1104"
"13.9800","1.6937","0.1107"
"14.0400","1.6989","0.1112"
"14.1000","1.7038","0.1117"
"14.1600","1.7089","0.1119"
"14.2200","1.7139","0.1118"
"14.2800","1.7189","0.1129"
"14.3400","1.7239","0.1132"
"14.4000","1.7288","0.1132"
"14.4600","1.7339","0.1141"
"14.5200","1.7388","0.1146"
"14.5800","1.7439","0.1147"
"14.6400","1.7489","0.1148"
"14.7000","1.7539","0.1155"
"14.7600","1.7589","0.1157"
"14.8200","1.7638","0.1163"
"14.8800","1.7689","0.1162"
"14.9400","1.7739","0.1168"
"15.0000","1.7788","0.1169"
"15.0600","1.7839","0.1172"
"15.1200","1.7888","0.1178"
"15.1800","1.7938","0.1180"
"15.2400","1.7989","0.1188"
"15.3000","1.8038","0.1187"
"15.3600","1.8089","0.1192"
"15.4200","1.8138","0.1194"
"15.4800","1.8188","0.1199"
"15.5400","1.8238","0.1205"
"15.6000","1.8288","0.1205"
"15.6600","1.8339","0.1210"
"15.7200","1.8388","0.1212"
"15.7800","1.8439","0.1221"
"15.8400","1.8487","0.1226"
"15.9000","1.8538","0.1224"
"15.9600","1.8588","0.1225"
"16.0200","1.8638","0.1228"
"16.0800","1.8689","0.1236"
"16.1400","1.8737","0.1241"
"16.2000","1.8789","0.1240"
"16.2600","1.8838","0.1245"
"16.3200","1.8889","0.1246"
"16.3800","1.8939","0.1249"
"16.4400","1.8988","0.1256"
"16.5000","1.9039","0.1257"
"16.5600","1.9088","0.1264"
"16.6200","1.9138","0.1267"
"16.6800","1.9187","0.1268"
"16.7400","1.9238","0.1272"
"16.8000","1.9289","0.1273"
"16.8600","1.9338","0.1278"
"16.9200","1.9389","0.1285"
"16.9800","1.9438","0.1287"
"17.0400","1.9489","0.1290"
"17.1000","1.9537","0.1296"
"17.1600","1.9589","0.1294"
"17.2200","1.9639","0.1299"
"17.2800","1.9689","0.1302"
"17.3400","1.9739","0.1305"
"17.4000","1.9787","0.1315"
"17.4600","1.9839","0.1313"
"17.5200","1.9888","0.1316"
"17.5800","1.9939","0.1321"
"17.6400","1.9989","0.1324"
"17.7000","2.0039","0.1328"
"17.7600","2.0089","0.1328"
"17.8200","2.0138","0.1338"
"17.8800","2.0189","0.1337"
"17.9400","2.0239","0.1341"
"18.0000","2.0289","0.1343"
"18.0600","2.0339","0.1344"
"18.1200","2.0388","0.1350"
"18.1800","2.0438","0.1353"
"18.2400","2.0488","0.1360"
"18.3000","2.0538","0.1363"
"18.3600","2.0589","0.1365"
"18.4200","2.0638","0.1367"
"18.4800","2.0689","0.1369"
"18.5400","2.0739","0.1372"
"18.6000","2.0789","0.1380"
"18.6600","2.0839","0.1381"
"18.7200","2.0887","0.1389"
"18.7800","2.0939","0.1387"
"18.8400","2.0987","0.1389"
"18.9000","2.1038","0.1393"
"18.9600","2.1088","0.1395"
"19.0200","2.1138","0.1398"
"19.0800","2.1189","0.1402"
"19.1400","2.1237","0.1405"
"19.2000","2.1289","0.1409"
"19.2600","2.1338","0.1413"
"19.3200","2.1388","0.1417"
"19.3800","2.1439","0.1417"
"19.4400","2.1488","0.1425"
"19.5000","2.1539","0.1428"
"19.5600","2.1588","0.1431"
"19.6200","2.1638","0.1433"
"19.6800","2.1687","0.1436"
"19.7400","2.1738","0.1444"
"19.8000","2.1789","0.1442"
"19.8600","2.1838","0.1442"
"19.9200","2.1889","0.1450"
"19.9800","2.1937","0.1453"
"20.0400","2.1989","0.1456"
"20.1000","2.2038","0.1455"
"20.1600","2.2089","0.1459"
"20.2200","2.2139","0.1464"
"20.2800","2.2189","0.1468"
"20.3400","2.2239","0.1470"
"20.4000","2.2287","0.1472"
"20.4600","2.2339","0.1477"
"20.5200","2.2388","0.1481"
"20.5800","2.2439","0.1482"
"20.6400","2.2489","0.1489"
"20.7000","2.2539","0.1492"
"20.7600","2.2589","0.1492"
"20.8200","2.2638","0.1496"
"20.8800","2.2689","0.1500"
"20.9400","2.2739","0.1504"
"21.0000","2.2789","0.1506"
"21.0600","2.2839","0.1510"
"21.1200","2.2888","0.1513"
"21.1800","2.2938","0.1513"
"21.2400","2.2989","0.1523"
"21.3000","2.3038","0.1524"
"21.3600","2.3089","0.1527"
"21.4200","2.3138","0.1529"
"21.4800","2.3188","0.1531"
"21.5400","2.3238","0.1534"
"21.6000","2.3288","0.1538"
"21.6600","2.3339","0.1545"
"21.7200","2.3388","0.1545"
"21.7800","2.3439","0.1545"
"21.8400","2.3488","0.1552"
"21.9000","2.3538","0.1551"
"21.9600","2.3588","0.1557"
"22.0200","2.3637","0.1560"
"22.0800","2.3689","0.1561"
"22.1400","2.3738","0.1571"
"22.2000","2.3790","0.1571"
"22.2600","2.3838","0.1573"
"22.3200","2.3888","0.1574"
"22.3800","2.3939","0.1578"
"22.4400","2.3987","0.1582"
"22.5000","2.4039","0.1585"
"22.5600","2.4087","0.1588"
"22.6200","2.4138","0.1592"
"22.6800","2.4187","0.1596"
"22.7400","2.4239","0.1598"
"22.8000","2.4289","0.1600"
"22.8600","2.4338","0.1605"
"22.9200","2.4389","0.1608"
"22.9800","2.4438","0.1608"
"23.0400","2.4489","0.1613"
"23.1000","2.4538","0.1615"
"23.1600","2.4589","0.1618"
"23.2200","2.4639","0.1621"
"23.2800","2.4689","0.1628"
"23.3400","2.4739","0.1630"
"23.4000","2.4787","0.1633"
"23.4600","2.4839","0.1637"
"23.5200","2.4888","0.1642"
"23.5800","2.4939","0.1641"
"23.6400","2.4989","0.1644"
"23.7000","2.5039","0.1646"
"23.7600","2.5089","0.1650"
"23.8200","2.5138","0.1659"
"23.8800","2.5189","0.1658"
"23.9400","2.5239","0.1662"
"24.0000","2.5289","0.1664"
"24.0600","2.5339","0.1666"
"24.1200","2.5388","0.1669"
"24.1800","2.5438","0.1672"
"24.2400","2.5488","0.1677"
"24.3000","2.5538","0.1676"
"24.3600","2.5589","0.1682"
"24.4200","2.5639","0.1686"
"24.4800","2.5689","0.1687"
"24.5400","2.5738","0.1692"
"24.6000","2.5788","0.1691"
"24.6600","2.5839","0.1697"
"24.7200","2.5888","0.1699"
"24.7800","2.5939","0.1704"
"24.8400","2.5988","0.1708"
"24.9000","2.6038","0.1712"
"24.9600","2.6089","0.1709"
"25.0200","2.6138","0.1711"
"25.0800","2.6189","0.1718"
"25.1400","2.6238","0.1720"
"25.2000","2.6289","0.1724"
"25.2600","2.6338","0.1724"
"25.3200","2.6389","0.1731"
"25.3800","2.6439","0.1736"
"25.4400","2.6488","0.1735"
"25.5000","2.6539","0.1739"
"25.5600","2.6587","0.1743"
"25.6200","2.6638","0.1749"
"25.6800","2.6687","0.1746"
"25.7400","2.6739","0.1751"
"25.8000","2.6789","0.1753"
"25.8600","2.6839","0.1756"
"25.9200","2.6889","0.1759"
"25.9800","2.6938","0.1765"
"26.0400","2.6989","0.1764"
"26.1000","2.7038","0.1767"
"26.1600","2.7089","0.1770"
"26.2200","2.7139","0.1773"
"26.2800","2.7189","0.1777"
"26.3400","2.7239","0.1780"
"26.4000","2.7287","0.1783"
"26.4600","2.7339","0.1788"
"26.5200","2.7388","0.1794"
"26.5800","2.7439","0.1793"
"26.6400","2.7489","0.1793"
"26.7000","2.7539","0.1796"
"26.7600","2.7589","0.1801"
"26.8200","2.7638","0.1804"
"26.8800","2.7689","0.1805"
"26.9400","2.7739","0.1810"
"27.0000","2.7789","0.1812"
"27.0600","2.7839","0.1812"
"27.1200","2.7888","0.1815"
"27.1800","2.7938","0.1821"
"27.2400","2.7988","0.1825"
"27.3000","2.8038","0.1826"
"27.3600","2.8089","0.1832"
"27.4200","2.8138","0.1832"
"27.4800","2.8189","0.1835"
"27.5400","2.8238","0.1837"
"27.6000","2.8288","0.1839"
"27.6600","2.8339","0.1844"
"27.7200","2.8388","0.1847"
"27.7800","2.8439","0.1848"
"27.8400","2.8488","0.1855"
"27.9000","2.8537","0.1856"
"27.9600","2.8588","0.1855"
"28.0200","2.8637","0.1862"
"28.0800","2.8689","0.1862"
"28.1400","2.8738","0.1869"
"28.2000","2.8789","0.1870"
"28.2600","2.8837","0.1873"
"28.3200","2.8888","0.1875"
"28.3800","2.8938","0.1878"
"28.4400","2.8988","0.1880"
"28.5000","2.9039","0.1884"
"28.5600","2.9088","0.1885"
"28.6200","2.9139","0.1885"
"28.6800","2.9188","0.1889"
"28.7400","2.9239","0.1891"
"28.8000","2.9288","0.1892"
"28.8600","2.9338","0.1899"
"28.9200","2.9389","0.1902"
"28.9800","2.9437","0.1902"
"29.0400","2.9489","0.1911"
"29.1000","2.9538","0.1912"
"29.1600","2.9589","0.1911"
"29.2200","2.9639","0.1917"
"29.2800","2.9689","0.1917"
"29.3400","2.9739","0.1926"
"29.4000","2.9787","0.1923"
"29.4600","2.9839","0.1927"
"29.5200","2.9888","0.1927"
"29.5800","2.9939","0.1932"
"29.6400","2.9989","0.1936"
"29.7000","3.0039","0.1932"
"29.7600","3.0089","0.1941"
"29.8200","3.0138","0.1944"
"29.8800","3.0189","0.1941"
"29.9400","3.0239","0.1949"
"30.0000","3.0289","0.1950"
"30.0600","3.0339","0.1954"
"30.1200","3.0387","0.1959"
"30.1800","3.0438","0.1957"
"30.2400","3.0488","0.1963"
"30.3000","3.0538","0.1963"
"30.3600","3.0589","0.1969"
"30.4200","3.0639","0.1970"
"30.4800","3.0689","0.1976"
"30.5400","3.0738","0.1976"
"30.6000","3.0788","0.1978"
"30.6600","3.0839","0.1983"
"30.7200","3.0888","0.1984"
"30.7800","3.0939","0.1985"
"30.8400","3.0988","0.1988"
"30.9000","3.1037","0.1991"
"30.9600","3.1089","0.1991"
"31.0200","3.1138","0.1996"
"31.0800","3.1189","0.2002"
"31.1400","3.1238","0.2001"
"31.2000","3.1289","0.2006"
"31.2600","3.1338","0.2005"
"31.3200","3.1389","0.2011"
"31.3800","3.1439","0.2010"
"31.4400","3.1488","0.2016"
"31.5000","3.1539","0.2016"
"31.5600","3.1588","0.2022"
"31.6200","3.1638","0.2022"
"31.6800","3.1687","0.2024"
"31.7400","3.1739","0.2029"
"31.8000","3.1789","0.2030"
"31.8600","3.1838","0.2034"
"31.9200","3.1889","0.2037"
"31.9800","3.1937","0.2035"
"32.0400","3.1989","0.2044"
"32.1000","3.2037","0.2045"
"32.1600","3.2089","0.2048"
"32.2200","3.2139","0.2048"
"32.2800","3.2189","0.2047"
"32.3400","3.2239","0.2053"
"32.4000","3.2287","0.2056"
"32.4600","3.2339","0.2056"
"32.5200","3.2388","0.2064"
"32.5800","3.2439","0.2066"
"32.6400","3.2489","0.2068"
"32.7000","3.2538","0.2068"
"32.7600","3.2589","0.2072"
"32.8200","3.2638","0.2073"
"32.8800","3.2689","0.2075"
"32.9400","3.2739","0.2080"
"33.0000","3.2789","0.2080"
"33.0600","3.2839","0.2086"
"33.1200","3.2888","0.2090"
"33.1800","3.2938","0.2088"
"33.2400","3.2988","0.2094"
"33.3000","3.3038","0.2093"
"33.3600","3.3089","0.2096"
"33.4200","3.3139","0.2101"
"33.4800","3.3189","0.2103"
"33.5400","3.3239","0.2105"
"33.6000","3.3288","0.2106"
"33.6600","3.3339","0.2110"
"33.7200","3.3387","0.2111"
"33.7800","3.3439","0.2113"
"33.8400","3.3487","0.2116"
"33.9000","3.3538","0.2120"
"33.9600","3.3588","0.2119"
"34.0200","3.3637","0.2123"
"34.0800","3.3689","0.2127"
"34.1400","3.3738","0.2129"
"34.2000","3.3789","0.2129"
"34.2600","3.3838","0.2131"
"34.3200","3.3888","0.2134"
"34.3800","3.3939","0.2138"
"34.4400","3.3988","0.2140"
"34.5000","3.4039","0.2141"
"34.5600","3.4088","0.2145"
"34.6200","3.4138","0.2146"
"34.6800","3.4188","0.2150"
"34.7400","3.4239","0.2154"
"34.8000","3.4288","0.2155"
"34.8600","3.4338","0.2158"
"34.9200","3.4389","0.2161"
"34.9800","3.4438","0.2163"
"35.0400","3.4489","0.2164"
"35.1000","3.4538","0.2167"
"35.1600","3.4589","0.2169"
"35.2200","3.4639","0.2169"
"35.2800","3.4688","0.2176"
"35.3400","3.4739","0.2178"
"35.4000","3.4787","0.2176"
"35.4600","3.4839","0.2184"
"35.5200","3.4888","0.2181"
"35.5800","3.4939","0.2186"
"35.6400","3.4989","0.2192"
"35.7000","3.5039","0.2191"
"35.7600","3.5089","0.2193"
"35.8200","3.5137","0.2196"
"35.8800","3.5189","0.2200"
"35.9400","3.5239","0.2206"
"36.0000","3.5289","0.2203"
"36.0600","3.5339","0.2204"
"36.1200","3.5388","0.2208"
"36.1800","3.5438","0.2211"
"36.2400","3.5488","0.2213"
"36.3000","3.5538","0.2214"
"36.3600","3.5589","0.2219"
"36.4200","3.5638","0.2218"
"36.4800","3.5689","0.2221"
"36.5400","3.5739","0.2223"
"36.6000","3.5789","0.2227"
"36.6600","3.5839","0.2230"
"36.7200","3.5888","0.2229"
"36.7800","3.5939","0.2235"
"36.8400","3.5988","0.2236"
"36.9000","3.6038","0.2238"
"36.9600","3.6088","0.2241"
"37.0200","3.6138","0.2242"
"37.0800","3.6189","0.2242"
"37.1400","3.6238","0.2250"
"37.2000","3.6289","0.2253"
"37.2600","3.6338","0.2250"
"37.3200","3.6389","0.2256"
"37.3800","3.6439","0.2254"
"37.4400","3.6488","0.2257"
"37.5000","3.6539","0.2261"
"37.5600","3.6587","0.2262"
"37.6200","3.6639","0.2263"
"37.6800","3.6688","0.2267"
"37.7400","3.6739","0.2271"
"37.8000","3.6789","0.2272"
"37.8600","3.6838","0.2275"
"37.9200","3.6890","0.2275"
"37.9800","3.6938","0.2277"
"38.0400","3.6988","0.2283"
"38.1000","3.7038","0.2283"
"38.1600","3.7089","0.2286"
"38.2200","3.7139","0.2290"
"38.2800","3.7189","0.2288"
"38.3400","3.7239","0.2291"
"38.4000","3.7288","0.2296"
"38.4600","3.7339","0.2291"
"38.5200","3.7387","0.2298"
"38.5800","3.7439","0.2302"
"38.6400","3.7489","0.2305"
"38.7000","3.7539","0.2303"
"38.7600","3.7589","0.2309"
"38.8200","3.7638","0.2313"
"38.8800","3.7689","0.2315"
"38.9400","3.7739","0.2316"
"39.0000","3.7788","0.2318"
"39.0600","3.7837","0.2318"
"39.1200","3.7887","0.2323"
"39.1800","3.7938","0.2324"
"39.2400","3.7988","0.2330"
"39.3000","3.8038","0.2326"
"39.3600","3.8089","0.2331"
"39.4200","3.8138","0.2332"
"39.4800","3.8188","0.2334"
"39.5400","3.8238","0.2338"
"39.6000","3.8287","0.2338"
"39.6600","3.8339","0.2346"
"39.7200","3.8388","0.2346"
"39.7800","3.8439","0.2343"
"39.8400","3.8488","0.2346"
"39.9000","3.8538","0.2350"
"39.9600","3.8588","0.2350"
"40.0200","3.8637","0.2353"
"40.0800","3.8689","0.2358"
"40.1400","3.8738","0.2359"
"40.2000","3.8789","0.2362"
"40.2600","3.8838","0.2364"
"40.3200","3.8888","0.2363"
"40.3800","3.8939","0.2364"
"40.4400","3.8988","0.2368"
"40.5000","3.9039","0.2370"
"40.5600","3.9088","0.2375"
"40.6200","3.9139","0.2375"
"40.6800","3.9187","0.2377"
"40.7400","3.9238","0.2383"
"40.8000","3.9288","0.2382"
"40.8600","3.9338","0.2387"
"40.9200","3.9389","0.2386"
"40.9800","3.9438","0.2390"
"41.0400","3.9489","0.2393"
"41.1000","3.9538","0.2392"
"41.1600","3.9589","0.2396"
"41.2200","3.9639","0.2396"
"41.2800","3.9688","0.2402"
"41.3400","3.9739","0.2402"
"41.4000","3.9787","0.2405"
"41.4600","3.9839","0.2403"
"41.5200","3.9888","0.2410"
"41.5800","3.9939","0.2408"
"41.6400","3.9989","0.2415"
"41.7000","4.0038","0.2412"
"41.7600","4.0088","0.2415"
"41.8200","4.0137","0.2421"
"41.8800","4.0189","0.2422"
"41.9400","4.0239","0.2426"
"42.0000","4.0289","0.2427"
"42.0600","4.0339","0.2427"
"42.1200","4.0388","0.2430"
"42.1800","4.0438","0.2429"
"42.2400","4.0488","0.2435"
"42.3000","4.0538","0.2434"
"42.3600","4.0589","0.2438"
"42.4200","4.0638","0.2442"
"42.4800","4.0688","0.2440"
"42.5400","4.0738","0.2447"
"42.6000","4.0788","0.2445"
"42.6600","4.0839","0.2449"
"42.7200","4.0887","0.2448"
"42.7800","4.0939","0.2451"
"42.8400","4.0988","0.2456"
"42.9000","4.1038","0.2458"
"42.9600","4.1089","0.2459"
"43.0200","4.1138","0.2458"
"43.0800","4.1189","0.2459"
"43.1400","4.1238","0.2466"
"43.2000","4.1289","0.2464"
"43.2600","4.1338","0.2464"
"43.3200","4.1388","0.2468"
"43.3800","4.1439","0.2470"
"43.4400","4.1488","0.2472"
"43.5000","4.1539","0.2475"
"43.5600","4.1588","0.2477"
"43.6200","4.1638","0.2478"
"43.6800","4.1687","0.2477"
"43.7400","4.1739","0.2481"
"43.8000","4.1789","0.2484"
"43.8600","4.1838","0.2486"
"43.9200","4.1889","0.2489"
"43.9800","4.1938","0.2489"
"44.0400","4.1989","0.2492"
"44.1000","4.2038","0.2493"
"44.1600","4.2089","0.2493"
"44.2200","4.2139","0.2496"
"44.2800","4.2189","0.2497"
"44.3400","4.2239","0.2496"
"44.4000","4.2287","0.2499"
"44.4600","4.2339","0.2504"
"44.5200","4.2388","0.2504"
"44.5800","4.2439","0.2504"
"44.6400","4.2489","0.2509"
"44.7000","4.2539","0.2507"
"44.7600","4.2589","0.2511"
"44.8200","4.2638","0.2515"
"44.8800","4.2689","0.2514"
"44.9400","4.2739","0.2519"
"45.0000","4.2788","0.2517"
"45.0600","4.2838","0.2522"
"45.1200","4.2888","0.2523"
"45.1800","4.2938","0.2521"
"45.2400","4.2989","0.2531"
"45.3000","4.3038","0.2526"
"45.3600","4.3089","0.2531"
"45.4200","4.3138","0.2531"
"45.4800","4.3188","0.2536"
"45.5400","4.3238","0.2538"
"45.6000","4.3288","0.2534"
"45.6600","4.3339","0.2540"
"45.7200","4.3388","0.2544"
"45.7800","4.3439","0.2542"
"45.8400","4.3488","0.2550"
"45.9000","4.3538","0.2547"
"45.9600","4.3589","0.2549"
"46.0200","4.3637","0.2552"
"46.0800","4.3689","0.2552"
"46.1400","4.3738","0.2555"
"46.2000","4.3789","0.2559"
"46.2600","4.3838","0.2560"
"46.3200","4.3889","0.2560"
"46.3800","4.3939","0.2563"
"46.4400","4.3988","0.2568"
"46.5000","4.4039","0.2565"
"46.5600","4.4088","0.2569"
"46.6200","4.4138","0.2567"
"46.6800","4.4188","0.2568"
"46.7400","4.4239","0.2572"
"46.8000","4.4289","0.2575"
"46.8600","4.4338","0.2576"
"46.9200","4.4389","0.2577"
"46.9800","4.4438","0.2578"
"47.0400","4.4489","0.2584"
"47.1000","4.4538","0.2578"
"47.1600","4.4589","0.2587"
"47.2200","4.4638","0.2589"
"47.2800","4.4688","0.2590"
"47.3400","4.4739","0.2587"
"47.4000","4.4787","0.2595"
"47.4600","4.4839","0.2595"
"47.5200","4.4888","0.2598"
"47.5800","4.4939","0.2599"
"47.6400","4.4989","0.2600"
"47.7000","4.5038","0.2601"
"47.7600","4.5089","0.2603"
"47.8200","4.5138","0.2607"
"47.8800","4.5189","0.2609"
"47.9400","4.5239","0.2611"
"48.0000","4.5289","0.2612"
"48.0600","4.5339","0.2612"
"48.1200","4.5388","0.2611"
"48.1800","4.5438","0.2615"
"48.2400","4.5488","0.2619"
"48.3000","4.5538","0.2617"
"48.3600","4.5589","0.2620"
"48.4200","4.5639","0.2621"
"48.4800","4.5689","0.2625"
"48.5400","4.5738","0.2620"
"48.6000","4.5788","0.2626"
"48.6600","4.5839","0.2628"
"48.7200","4.5888","0.2628"
"48.7800","4.5939","0.2629"
"48.8400","4.5988","0.2632"
"48.9000","4.6038","0.2634"
"48.9600","4.6089","0.2633"
"49.0200","4.6138","0.2637"
"49.0800","4.6189","0.2636"
"49.1400","4.6238","0.2639"
"49.2000","4.6289","0.2643"
"49.2600","4.6337","0.2642"
"49.3200","4.6388","0.2644"
"49.3800","4.6439","0.2646"
"49.4400","4.6488","0.2648"
"49.5000","4.6539","0.2648"
"49.5600","4.6588","0.2654"
"49.6200","4.6638","0.2651"
"49.6800","4.6687","0.2653"
"49.7400","4.6739","0.2657"
"49.8000","4.6788","0.2658"
"49.8600","4.6838","0.2660"
"49.9200","4.6889","0.2662"
"49.9800","4.6938","0.2662"
"50.0400","4.6989","0.2662"
"50.1000","4.7038","0.2666"
"50.1600","4.7089","0.2667"
"50.2200","4.7139","0.2668"
"50.2800","4.7188","0.2666"
"50.3400","4.7239","0.2673"
"50.4000","4.7287","0.2671"
"50.4600","4.7339","0.2674"
"50.5200","4.7388","0.2673"
"50.5800","4.7439","0.2677"
"50.6400","4.7489","0.2680"
"50.7000","4.7539","0.2679"
"50.7600","4.7589","0.2683"
"50.8200","4.7638","0.2684"
"50.8800","4.7689","0.2683"
"50.9400","4.7739","0.2688"
"51.0000","4.7789","0.2686"
"51.0600","4.7839","0.2687"
"51.1200","4.7888","0.2690"
"51.1800","4.7938","0.2691"
"51.2400","4.7988","0.2695"
"51.3000","4.8038","0.2695"
"51.3600","4.8089","0.2694"
"51.4200","4.8138","0.2699"
"51.4800","4.8188","0.2702"
"51.5400","4.8239","0.2702"
"51.6000","4.8289","0.2703"
"51.6600","4.8340","0.2708"
"51.7200","4.8388","0.2706"
"51.7800","4.8439","0.2703"
"51.8400","4.8488","0.2713"
"51.9000","4.8537","0.2712"
"51.9600","4.8588","0.2715"
"52.0200","4.8637","0.2717"
"52.0800","4.8689","0.2715"
"52.1400","4.8738","0.2721"
"52.2000","4.8789","0.2719"
"52.2600","4.8838","0.2719"
"52.3200","4.8888","0.2720"
"52.3800","4.8939","0.2723"
"52.4400","4.8988","0.2728"
"52.5000","4.9039","0.2731"
"52.5600","4.9088","0.2733"
"52.6200","4.9139","0.2728"
"52.6800","4.9188","0.2732"
"52.7400","4.9239","0.2738"
"52.8000","4.9289","0.2737"
"52.8600","4.9338","0.2739"
"52.9200","4.9389","0.2738"
"52.9800","4.9437","0.2743"
"53.0400","4.9489","0.2745"
"53.1000","4.9538","0.2746"
"53.1600","4.9589","0.2744"
"53.2200","4.9639","0.2745"
"53.2800","4.9689","0.2752"
"53.3400","4.9739","0.2748"
"53.4000","4.9788","0.2753"
"53.4600","4.9839","0.2751"
"53.5200","4.9888","0.2758"
"53.5800","4.9939","0.2755"
"53.6400","4.9989","0.2760"
"53.7000","5.0038","0.2759"
"53.7600","5.0089","0.2761"
"53.8200","5.0138","0.2765"
"53.8800","5.0189","0.2769"
"53.9400","5.0239","0.2770"
"54.0000","5.0289","0.2766"
"54.0600","5.0338","0.2767"
"54.1200","5.0388","0.2769"
"54.1800","5.0438","0.2775"
"54.2400","5.0488","0.2779"
"54.3000","5.0538","0.2776"
"54.3600","5.0589","0.2775"
"54.4200","5.0639","0.2777"
"54.4800","5.0689","0.2781"
"54.5400","5.0738","0.2781"
"54.6000","5.0787","0.2783"
"54.6600","5.0839","0.2781"
"54.7200","5.0888","0.2788"
"54.7800","5.0939","0.2789"
"54.8400","5.0988","0.2791"
"54.9000","5.1038","0.2791"
"54.9600","5.1089","0.2788"
"55.0200","5.1138","0.2789"
"55.0800","5.1189","0.2796"
"55.1400","5.1238","0.2798"
"55.2000","5.1289","0.2797"
"55.2600","5.1338","0.2798"
"55.3200","5.1388","0.2803"
"55.3800","5.1439","0.2802"
"55.4400","5.1488","0.2804"
"55.5000","5.1539","0.2807"
"55.5600","5.1588","0.2810"
"55.6200","5.1638","0.2806"
"55.6800","5.1688","0.2809"
"55.7400","5.1739","0.2811"
"55.8000","5.1788","0.2811"
"55.8600","5.1838","0.2813"
"55.9200","5.1889","0.2814"
"55.9800","5.1938","0.2815"
"56.0400","5.1989","0.2820"
"56.1000","5.2038","0.2823"
"56.1600","5.2089","0.2819"
"56.2200","5.2139","0.2820"
"56.2800","5.2189","0.2824"
"56.3400","5.2239","0.2826"
"56.4000","5.2287","0.2826"
"56.4600","5.2339","0.2828"
"56.5200","5.2388","0.2829"
"56.5800","5.2439","0.2827"
"56.6400","5.2489","0.2831"
"56.7000","5.2539","0.2827"
"56.7600","5.2589","0.2834"
"56.8200","5.2638","0.2833"
"56.8800","5.2689","0.2835"
"56.9400","5.2739","0.2837"
"57.0000","5.2789","0.2837"
"57.0600","5.2839","0.2843"
"57.1200","5.2888","0.2840"
"57.1800","5.2938","0.2844"
"57.2400","5.2988","0.2847"
"57.3000","5.3038","0.2845"
"57.3600","5.3089","0.2849"
"57.4200","5.3138","0.2849"
"57.4800","5.3189","0.2853"
"57.5400","5.3238","0.2848"
"57.6000","5.3288","0.2854"
"57.6600","5.3339","0.2853"
"57.7200","5.3388","0.2857"
"57.7800","5.3439","0.2855"
"57.8400","5.3488","0.2866"
"57.9000","5.3538","0.2858"
"57.9600","5.3588","0.2865"
"58.0200","5.3638","0.2862"
"58.0800","5.3689","0.2861"
"58.1400","5.3738","0.2860"
"58.2000","5.3789","0.2860"
"58.2600","5.3838","0.2862"
"58.3200","5.3888","0.2866"
"58.3800","5.3938","0.2866"
"58.4400","5.3988","0.2867"
"58.5000","5.4039","0.2869"
"58.5600","5.4088","0.2870"
"58.6200","5.4138","0.2870"
"58.6800","5.4188","0.2871"
"58.7400","5.4239","0.2874"
"58.8000","5.4288","0.2877"
"58.8600","5.4338","0.2878"
"58.9200","5.4389","0.2879"
"58.9800","5.4438","0.2879"
"59.0400","5.4489","0.2881"
"59.1000","5.4538","0.2884"
"59.1600","5.4589","0.2883"
"59.2200","5.4639","0.2881"
"59.2800","5.4689","0.2884"
"59.3400","5.4739","0.2888"
"59.4000","5.4787","0.2890"
"59.4600","5.4839","0.2890"
"59.5200","5.4888","0.2888"
"59.5800","5.4939","0.2892"
"59.6400","5.4989","0.2892"
"59.7000","5.5039","0.2892"
"59.7600","5.5089","0.2893"
"59.8200","5.5138","0.2900"
"59.8800","5.5189","0.2897"
"59.9400","5.5238","0.2900"
"60.0000","5.5288","0.2900"
"60.0600","5.5338","0.2899"
"60.1200","5.5388","0.2903"
"60.1800","5.5438","0.2903"
"60.2400","5.5488","0.2906"
"60.3000","5.5538","0.2905"
"60.3600","5.5589","0.2906"
"60.4200","5.5639","0.2910"
"60.4800","5.5688","0.2911"
"60.5400","5.5738","0.2910"
"60.6000","5.5788","0.2912"
"60.6600","5.5839","0.2916"
"60.7200","5.5888","0.2917"
"60.7800","5.5939","0.2912"
"60.8400","5.5988","0.2919"
"60.9000","5.6038","0.2918"
"60.9600","5.6088","0.2919"
"61.0200","5.6138","0.2923"
"61.0800","5.6189","0.2922"
"61.1400","5.6238","0.2924"
"61.2000","5.6289","0.2926"
"61.2600","5.6338","0.2922"
"61.3200","5.6389","0.2931"
"61.3800","5.6439","0.2927"
"61.4400","5.6488","0.2931"
"61.5000","5.6539","0.2930"
"61.5600","5.6587","0.2934"
"61.6200","5.6638","0.2934"
"61.6800","5.6687","0.2938"
"61.7400","5.6739","0.2936"
"61.8000","5.6789","0.2935"
"61.8600","5.6839","0.2937"
"61.9200","5.6890","0.2938"
"61.9800","5.6937","0.2941"
"62.0400","5.6989","0.2945"
"62.1000","5.7038","0.2940"
"62.1600","5.7089","0.2944"
"62.2200","5.7139","0.2942"
"62.2800","5.7189","0.2943"
"62.3400","5.7239","0.2945"
"62.4000","5.7287","0.2948"
"62.4600","5.7339","0.2945"
"62.5200","5.7388","0.2946"
"62.5800","5.7439","0.2941"
"62.6400","5.7489","0.2946"
"62.7000","5.7538","0.2947"
"62.7600","5.7589","0.2945"
"62.8200","5.7638","0.2945"
"62.8800","5.7689","0.2947"
"62.9400","5.7739","0.2950"
"63.0000","5.7789","0.2945"
"63.0600","5.7839","0.2949"
"63.1200","5.7888","0.2948"
"63.1800","5.7938","0.2948"
"63.2400","5.7988","0.2951"
"63.3000","5.8038","0.2950"
"63.3600","5.8089","0.2946"
"63.4200","5.8139","0.2936"
"63.4800","5.8189","0.2909"
"63.5400","5.8239","0.2905"
"63.6000","5.8289","0.2897"
"63.6600","5.8339","0.2897"
"63.7200","5.8388","0.2892"
"63.7800","5.8439","0.2894"
"63.8400","5.8488","0.2889"
"63.9000","5.8538","0.2887"
"63.9600","5.8589","0.2888"
"64.0200","5.8638","0.2888"
"64.0800","5.8689","0.2884"
"64.1400","5.8738","0.2882"
"64.2000","5.8789","0.2881"
"64.2600","5.8837","0.2878"
"64.3200","5.8888","0.2876"
"64.3800","5.8939","0.2872"
"64.4400","5.8988","0.2873"
"64.5000","5.9039","0.2871"
"64.5600","5.9088","0.2870"
"64.6200","5.9139","0.2870"
"64.6800","5.9188","0.2868"
"64.7400","5.9239","0.2871"
"64.8000","5.9288","0.2867"
"64.8600","5.9338","0.2868"
"64.9200","5.9389","0.2867"
"64.9800","5.9437","0.2863"
"65.0400","5.9489","0.2866"
"65.1000","5.9538","0.2864"
"65.1600","5.9589","0.2862"
"65.2200","5.9639","0.2861"
"65.2800","5.9689","0.2857"
"65.3400","5.9739","0.2857"
"65.4000","5.9787","0.2854"
"65.4600","5.9839","0.2845"
"65.5200","5.9889","0.2845"
"65.5800","5.9939","0.2832"
"65.6400","5.9989","0.2820"
"65.7000","6.0039","0.2802"
"65.7600","6.0089","0.2787"
"65.8200","6.0138","0.2781"
"65.8800","6.0189","0.2773"
"65.9400","6.0239","0.2770"
"66.0000","6.0289","0.2766"
"66.0600","6.0339","0.2759"
"66.1200","6.0387","0.2759"
"66.1800","6.0438","0.2757"
"66.2400","6.0488","0.2752"
"66.3000","6.0538","0.2749"
"66.3600","6.0589","0.2742"
"66.4200","6.0638","0.2739"
"66.4800","6.0688","0.2730"
"66.5400","6.0738","0.2729"
"66.6000","6.0788","0.2715"
"66.6600","6.0839","0.2706"
"66.7200","6.0887","0.2702"
"66.7800","6.0939","0.2695"
"66.8400","6.0988","0.2691"
"66.9000","6.1038","0.2685"
"66.9600","6.1088","0.2681"
"67.0200","6.1138","0.2674"
"67.0800","6.1189","0.2666"
"67.1400","6.1238","0.2667"
"67.2000","6.1289","0.2657"
"67.2600","6.1338","0.2655"
"67.3200","6.1389","0.2650"
"67.3800","6.1439","0.2644"
"67.4400","6.1488","0.2647"
"67.5000","6.1539","0.2643"
"67.5600","6.1588","0.2640"
"67.6200","6.1638","0.2641"
"67.6800","6.1688","0.2633"
"67.7400","6.1739","0.2633"
"67.8000","6.1789","0.2630"
"67.8600","6.1839","0.2626"
"67.9200","6.1889","0.2622"
"67.9800","6.1937","0.2623"
"68.0400","6.1988","0.2619"
"68.1000","6.2037","0.2619"
"68.1600","6.2089","0.2617"
"68.2200","6.2139","0.2612"
"68.2800","6.2189","0.2606"
"68.3400","6.2238","0.2602"
"68.4000","6.2287","0.2568"
"68.4600","6.2339","0.2552"
"68.5200","6.2388","0.2548"
"68.5800","6.2439","0.2539"
"68.6400","6.2489","0.2534"
"68.7000","6.2539","0.2526"
"68.7600","6.2589","0.2525"
"68.8200","6.2638","0.2523"
"68.8800","6.2689","0.2516"
"68.9400","6.2739","0.2517"
"69.0000","6.2789","0.2511"
"69.0600","6.2839","0.2507"
"69.1200","6.2888","0.2502"
"69.1800","6.2938","0.2503"
"69.2400","6.2988","0.2501"
"69.3000","6.3038","0.2495"
"69.3600","6.3089","0.2494"
"69.4200","6.3138","0.2494"
"69.4800","6.3188","0.2494"
"69.5400","6.3238","0.2493"
"69.6000","6.3288","0.2487"
"69.6600","6.3339","0.2486"
"69.7200","6.3387","0.2489"
"69.7800","6.3439","0.2482"
"69.8400","6.3487","0.2485"
"69.9000","6.3538","0.2478"
"69.9600","6.3588","0.2477"
"70.0200","6.3638","0.2475"
"70.0800","6.3689","0.2476"
"70.1400","6.3738","0.2472"
"70.2000","6.3789","0.2467"
"70.2600","6.3837","0.2468"
"70.3200","6.3888","0.2467"
"70.3800","6.3939","0.2460"
"70.4400","6.3988","0.2460"
"70.5000","6.4039","0.2457"
"70.5600","6.4088","0.2458"
"70.6200","6.4138","0.2460"
"70.6800","6.4187","0.2450"
"70.7400","6.4238","0.2450"
"70.8000","6.4288","0.2449"
"70.8600","6.4338","0.2449"
"70.9200","6.4389","0.2445"
"70.9800","6.4437","0.2439"
"71.0400","6.4489","0.2439"
"71.1000","6.4537","0.2434"
"71.1600","6.4589","0.2437"
"71.2200","6.4639","0.2428"
"71.2800","6.4688","0.2427"
"71.3400","6.4739","0.2423"
"71.4000","6.4787","0.2420"
"71.4600","6.4839","0.2412"
"71.5200","6.4888","0.2410"
"71.5800","6.4939","0.2404"
"71.6400","6.4989","0.2399"
"71.7000","6.5039","0.2390"
"71.7600","6.5089","0.2377"
"71.8200","6.5138","0.2367"
"71.8800","6.5189","0.2358"
"71.9400","6.5239","0.2351"
"72.0000","6.5289","0.2338"
"72.0600","6.5339","0.2327"
"72.1200","6.5388","0.2316"
"72.1800","6.5437","0.2307"
"72.2400","6.5488","0.2288"
"72.3000","6.5538","0.2229"
"72.3600","6.5589","0.2100"
"72.4200","6.5639","0.2011"
"72.4800","6.5689","0.1885"
"72.5400","6.5739","0.1808"
"72.6000","6.5788","0.1772"
"72.6600","6.5839","0.1758"
"72.7200","6.5888","0.1739"
"72.7800","6.5939","0.1722"
"72.8400","6.5988","0.1709"
"72.9000","6.6038","0.1688"
"72.9600","6.6088","0.1678"
"73.0200","6.6137","0.1669"
"73.0800","6.6189","0.1661"
"73.1400","6.6238","0.1651"
"73.2000","6.6289","0.1638"
"73.2600","6.6338","0.1628"
"73.3200","6.6389","0.1619"
"73.3800","6.6439","0.1609"
"73.4400","6.6487","0.1604"
"73.5000","6.6539","0.1598"
"73.5600","6.6587","0.1596"
"73.6200","6.6639","0.1587"
"73.6800","6.6687","0.1587"
"73.7400","6.6739","0.1579"
"73.8000","6.6789","0.1580"
"73.8600","6.6838","0.1571"
"73.9200","6.6889","0.1575"
"73.9800","6.6938","0.1562"
"74.0400","6.6989","0.1562"
"74.1000","6.7038","0.1561"
"74.1600","6.7089","0.1555"
"74.2200","6.7139","0.1553"
"74.2800","6.7189","0.1550"
"74.3400","6.7239","0.1547"
"74.4000","6.7287","0.1548"
"74.4600","6.7339","0.1544"
"74.5200","6.7388","0.1540"
"74.5800","6.7439","0.1540"
"74.6400","6.7489","0.1538"
"74.7000","6.7539","0.1533"
"74.7600","6.7589","0.1534"
"74.8200","6.7638","0.1532"
"74.8800","6.7689","0.1529"
"74.9400","6.7739","0.1528"
"75.0000","6.7789","0.1526"
"75.0600","6.7838","0.1523"
"75.1200","6.7888","0.1519"
"75.1800","6.7938","0.1519"
"75.2400","6.7989","0.1523"
"75.3000","6.8038","0.1516"
"75.3600","6.8089","0.1512"
"75.4200","6.8138","0.1512"
"75.4800","6.8189","0.1511"
"75.5400","6.8238","0.1509"
"75.6000","6.8288","0.1505"
"75.6600","6.8339","0.1501"
"75.7200","6.8388","0.1504"
"75.7800","6.8439","0.1498"
"75.8400","6.8488","0.1502"
"75.9000","6.8538","0.1498"
"75.9600","6.8589","0.1494"
"76.0200","6.8638","0.1491"
"76.0800","6.8689","0.1489"
"76.1400","6.8738","0.1490"
"76.2000","6.8789","0.1487"
"76.2600","6.8838","0.1483"
"76.3200","6.8888","0.1486"
"76.3800","6.8939","0.1480"
"76.4400","6.8988","0.1480"
"76.5000","6.9039","0.1474"
"76.5600","6.9088","0.1477"
"76.6200","6.9138","0.1476"
"76.6800","6.9187","0.1473"
"76.7400","6.9239","0.1473"
"76.8000","6.9289","0.1472"
"76.8600","6.9338","0.1465"
"76.9200","6.9389","0.1469"
"76.9800","6.9438","0.1467"
"77.0400","6.9489","0.1465"
"77.1000","6.9538","0.1463"
"77.1600","6.9589","0.1460"
"77.2200","6.9638","0.1466"
"77.2800","6.9688","0.1460"
"77.3400","6.9739","0.1460"
"77.4000","6.9787","0.1460"
"77.4600","6.9839","0.1455"
"77.5200","6.9888","0.1455"
"77.5800","6.9939","0.1452"
"77.6400","6.9989","0.1454"
"77.7000","7.0038","0.1451"
"77.7600","7.0089","0.1453"
"77.8200","7.0138","0.1451"
"77.8800","7.0189","0.1446"
"77.9400","7.0239","0.1448"
"77.9500","7.0246","0.1447"