File: flexural/ES100_Trevor_Flexural_Data_11_1.csv
Specimen text inputs : Specimen text input  1,,""

Results Table 1
,Specimen text input  1
"11","h45_f1"

Results Table 2

Time,Displacement,Force
(s),(mm),(kN)
"0.0000","0.8652","0.0202"
"0.0800","0.8739","0.0221"
"0.1600","0.8782","0.0221"
"0.2400","0.8843","0.0225"
"0.3200","0.8909","0.0228"
"0.4000","0.8975","0.0230"
"0.4800","0.9042","0.0242"
"0.5600","0.9108","0.0246"
"0.6400","0.9174","0.0247"
"0.7200","0.9241","0.0253"
"0.8000","0.9308","0.0262"
"0.8800","0.9374","0.0267"
"0.9600","0.9441","0.0270"
"1.0400","0.9509","0.0275"
"1.1200","0.9575","0.0283"
"1.2000","0.9642","0.0288"
"1.2800","0.9708","0.0295"
"1.3600","0.9775","0.0299"
"1.4400","0.9842","0.0307"
"1.5200","0.9908","0.0309"
"1.6000","0.9976","0.0317"
"1.6800","1.0042","0.0323"
"1.7600","1.0110","0.0324"
"1.8400","1.0174","0.0330"
"1.9200","1.0242","0.0339"
"2.0000","1.0309","0.0340"
"2.0800","1.0375","0.0349"
"2.1600","1.0441","0.0356"
"2.2400","1.0507","0.0359"
"2.3200","1.0576","0.0367"
"2.4000","1.0641","0.0373"
"2.4800","1.0709","0.0375"
"2.5600","1.0775","0.0382"
"2.6400","1.0843","0.0392"
"2.7200","1.0909","0.0394"
"2.8000","1.0974","0.0396"
"2.8800","1.1041","0.0404"
"2.9600","1.1108","0.0413"
"3.0400","1.1176","0.0416"
"3.1200","1.1241","0.0419"
"3.2000","1.1309","0.0427"
"3.2800","1.1376","0.0433"
"3.3600","1.1442","0.0439"
"3.4400","1.1508","0.0446"
"3.5200","1.1574","0.0448"
"3.6000","1.1642","0.0453"
"3.6800","1.1709","0.0463"
"3.7600","1.1776","0.0463"
"3.8400","1.1842","0.0470"
"3.9200","1.1909","0.0477"
"4.0000","1.1975","0.0486"
"4.0800","1.2041","0.0489"
"4.1600","1.2108","0.0493"
"4.2400","1.2175","0.0496"
"4.3200","1.2243","0.0502"
"4.4000","1.2307","0.0512"
"4.4800","1.2376","0.0516"
"4.5600","1.2442","0.0519"
"4.6400","1.2509","0.0527"
"4.7200","1.2576","0.0532"
"4.8000","1.2641","0.0540"
"4.8800","1.2709","0.0540"
"4.9600","1.2774","0.0547"
"5.0400","1.2842","0.0554"
"5.1200","1.2908","0.0559"
"5.2000","1.2976","0.0566"
"5.2800","1.3042","0.0570"
"5.3600","1.3108","0.0576"
"5.4400","1.3176","0.0579"
"5.5200","1.3242","0.0589"
"5.6000","1.3309","0.0590"
"5.6800","1.3374","0.0597"
"5.7600","1.3443","0.0602"
"5.8400","1.3509","0.0610"
"5.9200","1.3576","0.0613"
"6.0000","1.3641","0.0621"
"6.0800","1.3708","0.0629"
"6.1600","1.3775","0.0630"
"6.2400","1.3841","0.0639"
"6.3200","1.3909","0.0639"
"6.4000","1.3976","0.0646"
"6.4800","1.4043","0.0655"
"6.5600","1.4108","0.0661"
"6.6400","1.4174","0.0667"
"6.7200","1.4241","0.0670"
"6.8000","1.4308","0.0678"
"6.8800","1.4376","0.0680"
"6.9600","1.4441","0.0691"
"7.0400","1.4509","0.0692"
"7.1200","1.4576","0.0699"
"7.2000","1.4642","0.0702"
"7.2800","1.4708","0.0711"
"7.3600","1.4775","0.0718"
"7.4400","1.4843","0.0726"
"7.5200","1.4907","0.0727"
"7.6000","1.4975","0.0733"
"7.6800","1.5043","0.0739"
"7.7600","1.5110","0.0745"
"7.8400","1.5175","0.0752"
"7.9200","1.5243","0.0756"
"8.0000","1.5309","0.0760"
"8.0800","1.5374","0.0766"
"8.1600","1.5441","0.0772"
"8.2400","1.5507","0.0778"
"8.3200","1.5576","0.0783"
"8.4000","1.5642","0.0791"
"8.4800","1.5709","0.0795"
"8.5600","1.5774","0.0798"
"8.6400","1.5842","0.0806"
"8.7200","1.5908","0.0814"
"8.8000","1.5974","0.0814"
"8.8800","1.6041","0.0823"
"8.9600","1.6108","0.0829"
"9.0400","1.6176","0.0833"
"9.1200","1.6241","0.0840"
"9.2000","1.6309","0.0846"
"9.2800","1.6376","0.0850"
"9.3600","1.6441","0.0857"
"9.4400","1.6508","0.0860"
"9.5200","1.6574","0.0863"
"9.6000","1.6642","0.0874"
"9.6800","1.6708","0.0880"
"9.7600","1.6775","0.0883"
"9.8400","1.6841","0.0894"
"9.9200","1.6909","0.0892"
"10.0000","1.6976","0.0899"
"10.0800","1.7041","0.0906"
"10.1600","1.7108","0.0911"
"10.2400","1.7175","0.0914"
"10.3200","1.7243","0.0920"
"10.4000","1.7308","0.0927"
"10.4800","1.7376","0.0931"
"10.5600","1.7443","0.0940"
"10.6400","1.7509","0.0944"
"10.7200","1.7575","0.0947"
"10.8000","1.7641","0.0956"
"10.8800","1.7709","0.0956"
"10.9600","1.7774","0.0963"
"11.0400","1.7843","0.0969"
"11.1200","1.7908","0.0975"
"11.2000","1.7976","0.0980"
"11.2800","1.8041","0.0987"
"11.3600","1.8108","0.0992"
"11.4400","1.8175","0.0993"
"11.5200","1.8241","0.1001"
"11.6000","1.8308","0.1004"
"11.6800","1.8374","0.1015"
"11.7600","1.8442","0.1018"
"11.8400","1.8508","0.1026"
"11.9200","1.8575","0.1029"
"12.0000","1.8641","0.1033"
"12.0800","1.8708","0.1043"
"12.1600","1.8775","0.1044"
"12.2400","1.8841","0.1057"
"12.3200","1.8909","0.1055"
"12.4000","1.8975","0.1062"
"12.4800","1.9042","0.1070"
"12.5600","1.9108","0.1074"
"12.6400","1.9174","0.1075"
"12.7200","1.9241","0.1084"
"12.8000","1.9308","0.1089"
"12.8800","1.9375","0.1093"
"12.9600","1.9441","0.1100"
"13.0400","1.9509","0.1105"
"13.1200","1.9576","0.1110"
"13.2000","1.9642","0.1114"
"13.2800","1.9709","0.1122"
"13.3600","1.9775","0.1125"
"13.4400","1.9842","0.1135"
"13.5200","1.9908","0.1133"
"13.6000","1.9975","0.1142"
"13.6800","2.0042","0.1145"
"13.7600","2.0111","0.1154"
"13.8400","2.0175","0.1157"
"13.9200","2.0242","0.1161"
"14.0000","2.0309","0.1167"
"14.0800","2.0375","0.1173"
"14.1600","2.0441","0.1177"
"14.2400","2.0507","0.1185"
"14.3200","2.0576","0.1185"
"14.4000","2.0642","0.1191"
"14.4800","2.0709","0.1198"
"14.5600","2.0775","0.1205"
"14.6400","2.0843","0.1208"
"14.7200","2.0908","0.1213"
"14.8000","2.0974","0.1216"
"14.8800","2.1041","0.1222"
"14.9600","2.1108","0.1232"
"15.0400","2.1176","0.1233"
"15.1200","2.1241","0.1237"
"15.2000","2.1309","0.1241"
"15.2800","2.1376","0.1249"
"15.3600","2.1442","0.1253"
"15.4400","2.1508","0.1262"
"15.5200","2.1574","0.1262"
"15.6000","2.1642","0.1271"
"15.6800","2.1709","0.1275"
"15.7600","2.1775","0.1282"
"15.8400","2.1841","0.1285"
"15.9200","2.1909","0.1287"
"16.0000","2.1976","0.1294"
"16.0800","2.2041","0.1301"
"16.1600","2.2108","0.1303"
"16.2400","2.2175","0.1307"
"16.3200","2.2243","0.1314"
"16.4000","2.2308","0.1318"
"16.4800","2.2375","0.1321"
"16.5600","2.2443","0.1327"
"16.6400","2.2509","0.1334"
"16.7200","2.2576","0.1336"
"16.8000","2.2641","0.1345"
"16.8800","2.2709","0.1347"
"16.9600","2.2774","0.1353"
"17.0400","2.2843","0.1356"
"17.1200","2.2908","0.1359"
"17.2000","2.2976","0.1365"
"17.2800","2.3042","0.1377"
"17.3600","2.3108","0.1378"
"17.4400","2.3175","0.1381"
"17.5200","2.3241","0.1384"
"17.6000","2.3309","0.1390"
"17.6800","2.3374","0.1398"
"17.7600","2.3443","0.1401"
"17.8400","2.3509","0.1403"
"17.9200","2.3575","0.1411"
"18.0000","2.3641","0.1417"
"18.0800","2.3708","0.1422"
"18.1600","2.3776","0.1421"
"18.2400","2.3841","0.1434"
"18.3200","2.3909","0.1432"
"18.4000","2.3975","0.1439"
"18.4800","2.4043","0.1445"
"18.5600","2.4108","0.1448"
"18.6400","2.4174","0.1451"
"18.7200","2.4242","0.1457"
"18.8000","2.4308","0.1462"
"18.8800","2.4375","0.1469"
"18.9600","2.4441","0.1471"
"19.0400","2.4509","0.1476"
"19.1200","2.4576","0.1485"
"19.2000","2.4643","0.1487"
"19.2800","2.4709","0.1493"
"19.3600","2.4775","0.1497"
"19.4400","2.4842","0.1503"
"19.5200","2.4908","0.1505"
"19.6000","2.4975","0.1508"
"19.6800","2.5042","0.1516"
"19.7600","2.5111","0.1522"
"19.8400","2.5175","0.1521"
"19.9200","2.5242","0.1530"
"20.0000","2.5309","0.1533"
"20.0800","2.5374","0.1535"
"20.1600","2.5441","0.1543"
"20.2400","2.5507","0.1546"
"20.3200","2.5576","0.1552"
"20.4000","2.5642","0.1559"
"20.4800","2.5709","0.1558"
"20.5600","2.5775","0.1564"
"20.6400","2.5842","0.1572"
"20.7200","2.5908","0.1575"
"20.8000","2.5974","0.1581"
"20.8800","2.6041","0.1585"
"20.9600","2.6108","0.1587"
"21.0400","2.6176","0.1591"
"21.1200","2.6241","0.1601"
"21.2000","2.6309","0.1604"
"21.2800","2.6376","0.1609"
"21.3600","2.6442","0.1611"
"21.4400","2.6508","0.1618"
"21.5200","2.6574","0.1620"
"21.6000","2.6642","0.1625"
"21.6800","2.6708","0.1630"
"21.7600","2.6775","0.1633"
"21.8400","2.6841","0.1642"
"21.9200","2.6909","0.1643"
"22.0000","2.6975","0.1644"
"22.0800","2.7041","0.1657"
"22.1600","2.7108","0.1659"
"22.2400","2.7174","0.1659"
"22.3200","2.7242","0.1665"
"22.4000","2.7308","0.1672"
"22.4800","2.7376","0.1674"
"22.5600","2.7443","0.1679"
"22.6400","2.7509","0.1687"
"22.7200","2.7576","0.1687"
"22.8000","2.7641","0.1692"
"22.8800","2.7709","0.1696"
"22.9600","2.7774","0.1702"
"23.0400","2.7842","0.1709"
"23.1200","2.7908","0.1712"
"23.2000","2.7976","0.1712"
"23.2800","2.8041","0.1721"
"23.3600","2.8108","0.1725"
"23.4400","2.8175","0.1725"
"23.5200","2.8242","0.1732"
"23.6000","2.8309","0.1734"
"23.6800","2.8374","0.1737"
"23.7600","2.8442","0.1746"
"23.8400","2.8508","0.1749"
"23.9200","2.8575","0.1752"
"24.0000","2.8641","0.1760"
"24.0800","2.8709","0.1765"
"24.1600","2.8775","0.1763"
"24.2400","2.8841","0.1772"
"24.3200","2.8908","0.1772"
"24.4000","2.8975","0.1777"
"24.4800","2.9043","0.1788"
"24.5600","2.9108","0.1788"
"24.6400","2.9174","0.1793"
"24.7200","2.9242","0.1800"
"24.8000","2.9308","0.1800"
"24.8800","2.9374","0.1804"
"24.9600","2.9441","0.1811"
"25.0400","2.9509","0.1810"
"25.1200","2.9576","0.1816"
"25.2000","2.9642","0.1823"
"25.2800","2.9708","0.1822"
"25.3600","2.9774","0.1829"
"25.4400","2.9842","0.1835"
"25.5200","2.9908","0.1836"
"25.6000","2.9975","0.1848"
"25.6800","3.0043","0.1847"
"25.7600","3.0111","0.1851"
"25.8400","3.0175","0.1856"
"25.9200","3.0242","0.1857"
"26.0000","3.0309","0.1867"
"26.0800","3.0375","0.1862"
"26.1600","3.0441","0.1870"
"26.2400","3.0507","0.1873"
"26.3200","3.0576","0.1876"
"26.4000","3.0642","0.1880"
"26.4800","3.0709","0.1886"
"26.5600","3.0774","0.1886"
"26.6400","3.0842","0.1896"
"26.7200","3.0909","0.1901"
"26.8000","3.0974","0.1906"
"26.8800","3.1041","0.1906"
"26.9600","3.1108","0.1911"
"27.0400","3.1176","0.1914"
"27.1200","3.1241","0.1919"
"27.2000","3.1309","0.1924"
"27.2800","3.1376","0.1924"
"27.3600","3.1442","0.1929"
"27.4400","3.1508","0.1929"
"27.5200","3.1574","0.1939"
"27.6000","3.1642","0.1944"
"27.6800","3.1708","0.1948"
"27.7600","3.1775","0.1950"
"27.8400","3.1841","0.1954"
"27.9200","3.1909","0.1957"
"28.0000","3.1976","0.1959"
"28.0800","3.2041","0.1968"
"28.1600","3.2108","0.1973"
"28.2400","3.2175","0.1974"
"28.3200","3.2243","0.1974"
"28.4000","3.2308","0.1979"
"28.4800","3.2376","0.1984"
"28.5600","3.2443","0.1989"
"28.6400","3.2508","0.1994"
"28.7200","3.2576","0.1997"
"28.8000","3.2641","0.2000"
"28.8800","3.2709","0.2003"
"28.9600","3.2774","0.2012"
"29.0400","3.2843","0.2014"
"29.1200","3.2908","0.2012"
"29.2000","3.2976","0.2019"
"29.2800","3.3041","0.2024"
"29.3600","3.3108","0.2030"
"29.4400","3.3176","0.2031"
"29.5200","3.3242","0.2035"
"29.6000","3.3309","0.2038"
"29.6800","3.3374","0.2040"
"29.7600","3.3442","0.2043"
"29.8400","3.3508","0.2047"
"29.9200","3.3575","0.2055"
"30.0000","3.3641","0.2056"
"30.0800","3.3708","0.2061"
"30.1600","3.3776","0.2061"
"30.2400","3.3841","0.2070"
"30.3200","3.3908","0.2072"
"30.4000","3.3975","0.2071"
"30.4800","3.4042","0.2083"
"30.5600","3.4108","0.2085"
"30.6400","3.4174","0.2084"
"30.7200","3.4242","0.2093"
"30.8000","3.4308","0.2091"
"30.8800","3.4374","0.2097"
"30.9600","3.4441","0.2101"
"31.0400","3.4509","0.2106"
"31.1200","3.4576","0.2105"
"31.2000","3.4642","0.2113"
"31.2800","3.4708","0.2115"
"31.3600","3.4774","0.2119"
"31.4400","3.4842","0.2125"
"31.5200","3.4908","0.2127"
"31.6000","3.4976","0.2128"
"31.6800","3.5043","0.2134"
"31.7600","3.5110","0.2137"
"31.8400","3.5175","0.2139"
"31.9200","3.5242","0.2144"
"32.0000","3.5309","0.2145"
"32.0800","3.5375","0.2148"
"32.1600","3.5441","0.2153"
"32.2400","3.5507","0.2159"
"32.3200","3.5576","0.2161"
"32.4000","3.5642","0.2168"
"32.4800","3.5709","0.2170"
"32.5600","3.5775","0.2170"
"32.6400","3.5842","0.2178"
"32.7200","3.5909","0.2177"
"32.8000","3.5974","0.2184"
"32.8800","3.6041","0.2188"
"32.9600","3.6108","0.2190"
"33.0400","3.6176","0.2192"
"33.1200","3.6241","0.2199"
"33.2000","3.6309","0.2200"
"33.2800","3.6376","0.2198"
"33.3600","3.6442","0.2196"
"33.4400","3.6507","0.2203"
"33.5200","3.6574","0.2205"
"33.6000","3.6642","0.2212"
"33.6800","3.6709","0.2214"
"33.7600","3.6776","0.2216"
"33.8400","3.6842","0.2221"
"33.9200","3.6909","0.2224"
"34.0000","3.6975","0.2230"
"34.0800","3.7041","0.2228"
"34.1600","3.7108","0.2237"
"34.2400","3.7175","0.2234"
"34.3200","3.7242","0.2240"
"34.4000","3.7308","0.2244"
"34.4800","3.7376","0.2249"
"34.5600","3.7442","0.2248"
"34.6400","3.7509","0.2247"
"34.7200","3.7576","0.2249"
"34.8000","3.7641","0.2252"
"34.8800","3.7709","0.2257"
"34.9600","3.7774","0.2258"
"35.0400","3.7841","0.2261"
"35.1200","3.7908","0.2267"
"35.2000","3.7976","0.2266"
"35.2800","3.8042","0.2270"
"35.3600","3.8108","0.2277"
"35.4400","3.8175","0.2276"
"35.5200","3.8241","0.2280"
"35.6000","3.8308","0.2281"
"35.6800","3.8374","0.2284"
"35.7600","3.8442","0.2291"
"35.8400","3.8509","0.2294"
"35.9200","3.8576","0.2296"
"36.0000","3.8641","0.2301"
"36.0800","3.8708","0.2306"
"36.1600","3.8775","0.2306"
"36.2400","3.8841","0.2309"
"36.3200","3.8909","0.2314"
"36.4000","3.8975","0.2313"
"36.4800","3.9042","0.2319"
"36.5600","3.9108","0.2322"
"36.6400","3.9174","0.2324"
"36.7200","3.9241","0.2332"
"36.8000","3.9308","0.2330"
"36.8800","3.9375","0.2335"
"36.9600","3.9441","0.2338"
"37.0400","3.9509","0.2342"
"37.1200","3.9576","0.2342"
"37.2000","3.9642","0.2351"
"37.2800","3.9708","0.2349"
"37.3600","3.9774","0.2356"
"37.4400","3.9843","0.2359"
"37.5200","3.9908","0.2359"
"37.6000","3.9976","0.2362"
"37.6800","4.0042","0.2365"
"37.7600","4.0109","0.2370"
"37.8400","4.0175","0.2372"
"37.9200","4.0242","0.2375"
"38.0000","4.0309","0.2384"
"38.0800","4.0375","0.2382"
"38.1600","4.0441","0.2386"
"38.2400","4.0507","0.2388"
"38.3200","4.0576","0.2390"
"38.4000","4.0642","0.2393"
"38.4800","4.0709","0.2398"
"38.5600","4.0775","0.2401"
"38.6400","4.0842","0.2405"
"38.7200","4.0908","0.2407"
"38.8000","4.0974","0.2411"
"38.8800","4.1041","0.2412"
"38.9600","4.1108","0.2413"
"39.0400","4.1176","0.2421"
"39.1200","4.1241","0.2419"
"39.2000","4.1309","0.2423"
"39.2800","4.1376","0.2423"
"39.3600","4.1441","0.2428"
"39.4400","4.1508","0.2434"
"39.5200","4.1574","0.2436"
"39.6000","4.1642","0.2438"
"39.6800","4.1708","0.2443"
"39.7600","4.1775","0.2442"
"39.8400","4.1841","0.2447"
"39.9200","4.1909","0.2448"
"40.0000","4.1976","0.2446"
"40.0800","4.2041","0.2449"
"40.1600","4.2109","0.2453"
"40.2400","4.2175","0.2455"
"40.3200","4.2243","0.2456"
"40.4000","4.2308","0.2462"
"40.4800","4.2376","0.2460"
"40.5600","4.2443","0.2464"
"40.6400","4.2509","0.2463"
"40.7200","4.2576","0.2465"
"40.8000","4.2641","0.2470"
"40.8800","4.2709","0.2471"
"40.9600","4.2774","0.2476"
"41.0400","4.2842","0.2482"
"41.1200","4.2908","0.2478"
"41.2000","4.2976","0.2484"
"41.2800","4.3042","0.2489"
"41.3600","4.3108","0.2491"
"41.4400","4.3175","0.2491"
"41.5200","4.3241","0.2496"
"41.6000","4.3309","0.2496"
"41.6800","4.3374","0.2501"
"41.7600","4.3443","0.2503"
"41.8400","4.3508","0.2505"
"41.9200","4.3575","0.2506"
"42.0000","4.3641","0.2512"
"42.0800","4.3708","0.2515"
"42.1600","4.3776","0.2513"
"42.2400","4.3841","0.2520"
"42.3200","4.3909","0.2523"
"42.4000","4.3975","0.2524"
"42.4800","4.4043","0.2527"
"42.5600","4.4108","0.2531"
"42.6400","4.4174","0.2530"
"42.7200","4.4242","0.2537"
"42.8000","4.4308","0.2535"
"42.8800","4.4375","0.2534"
"42.9600","4.4441","0.2539"
"43.0400","4.4509","0.2545"
"43.1200","4.4576","0.2543"
"43.2000","4.4642","0.2546"
"43.2800","4.4708","0.2547"
"43.3600","4.4774","0.2550"
"43.4400","4.4842","0.2555"
"43.5200","4.4907","0.2552"
"43.6000","4.4976","0.2557"
"43.6800","4.5043","0.2559"
"43.7600","4.5110","0.2571"
"43.8400","4.5175","0.2566"
"43.9200","4.5242","0.2566"
"44.0000","4.5309","0.2572"
"44.0800","4.5375","0.2574"
"44.1600","4.5441","0.2575"
"44.2400","4.5508","0.2583"
"44.3200","4.5576","0.2580"
"44.4000","4.5642","0.2585"
"44.4800","4.5709","0.2587"
"44.5600","4.5775","0.2586"
"44.6400","4.5842","0.2593"
"44.7200","4.5908","0.2593"
"44.8000","4.5974","0.2597"
"44.8800","4.6041","0.2597"
"44.9600","4.6108","0.2604"
"45.0400","4.6176","0.2599"
"45.1200","4.6241","0.2599"
"45.2000","4.6309","0.2600"
"45.2800","4.6376","0.2604"
"45.3600","4.6442","0.2602"
"45.4400","4.6508","0.2609"
"45.5200","4.6574","0.2604"
"45.6000","4.6642","0.2612"
"45.6800","4.6708","0.2612"
"45.7600","4.6775","0.2615"
"45.8400","4.6841","0.2619"
"45.9200","4.6909","0.2619"
"46.0000","4.6976","0.2625"
"46.0800","4.7041","0.2626"
"46.1600","4.7108","0.2629"
"46.2400","4.7174","0.2628"
"46.3200","4.7242","0.2633"
"46.4000","4.7308","0.2636"
"46.4800","4.7376","0.2638"
"46.5600","4.7443","0.2640"
"46.6400","4.7509","0.2643"
"46.7200","4.7575","0.2642"
"46.8000","4.7641","0.2646"
"46.8800","4.7709","0.2650"
"46.9600","4.7774","0.2650"
"47.0400","4.7842","0.2656"
"47.1200","4.7908","0.2656"
"47.2000","4.7976","0.2658"
"47.2800","4.8042","0.2661"
"47.3600","4.8108","0.2664"
"47.4400","4.8175","0.2664"
"47.5200","4.8242","0.2669"
"47.6000","4.8309","0.2668"
"47.6800","4.8374","0.2669"
"47.7600","4.8443","0.2675"
"47.8400","4.8508","0.2673"
"47.9200","4.8575","0.2679"
"48.0000","4.8641","0.2681"
"48.0800","4.8708","0.2690"
"48.1600","4.8775","0.2685"
"48.2400","4.8841","0.2692"
"48.3200","4.8909","0.2691"
"48.4000","4.8975","0.2694"
"48.4800","4.9043","0.2696"
"48.5600","4.9108","0.2700"
"48.6400","4.9174","0.2700"
"48.7200","4.9242","0.2704"
"48.8000","4.9308","0.2708"
"48.8800","4.9375","0.2707"
"48.9600","4.9441","0.2710"
"49.0400","4.9509","0.2712"
"49.1200","4.9576","0.2715"
"49.2000","4.9643","0.2717"
"49.2800","4.9709","0.2720"
"49.3600","4.9775","0.2721"
"49.4400","4.9843","0.2725"
"49.5200","4.9907","0.2721"
"49.6000","4.9975","0.2728"
"49.6800","5.0042","0.2729"
"49.7600","5.0110","0.2730"
"49.8400","5.0175","0.2732"
"49.9200","5.0242","0.2735"
"50.0000","5.0309","0.2740"
"50.0800","5.0375","0.2741"
"50.1600","5.0441","0.2738"
"50.2400","5.0507","0.2740"
"50.3200","5.0576","0.2743"
"50.4000","5.0643","0.2744"
"50.4800","5.0709","0.2751"
"50.5600","5.0774","0.2748"
"50.6400","5.0842","0.2756"
"50.7200","5.0908","0.2753"
"50.8000","5.0974","0.2759"
"50.8800","5.1041","0.2757"
"50.9600","5.1108","0.2761"
"51.0400","5.1176","0.2763"
"51.1200","5.1241","0.2767"
"51.2000","5.1309","0.2766"
"51.2800","5.1376","0.2772"
"51.3600","5.1442","0.2775"
"51.4400","5.1508","0.2778"
"51.5200","5.1574","0.2777"
"51.6000","5.1642","0.2778"
"51.6800","5.1708","0.2782"
"51.7600","5.1775","0.2789"
"51.8400","5.1842","0.2791"
"51.9200","5.1909","0.2783"
"52.0000","5.1976","0.2789"
"52.0800","5.2041","0.2793"
"52.1600","5.2109","0.2796"
"52.2400","5.2175","0.2796"
"52.3200","5.2242","0.2802"
"52.4000","5.2308","0.2803"
"52.4800","5.2376","0.2800"
"52.5600","5.2443","0.2804"
"52.6400","5.2509","0.2806"
"52.7200","5.2576","0.2809"
"52.8000","5.2641","0.2808"
"52.8800","5.2709","0.2809"
"52.9600","5.2774","0.2813"
"53.0400","5.2842","0.2813"
"53.1200","5.2908","0.2815"
"53.2000","5.2976","0.2821"
"53.2800","5.3041","0.2819"
"53.3600","5.3108","0.2826"
"53.4400","5.3175","0.2824"
"53.5200","5.3241","0.2825"
"53.6000","5.3309","0.2825"
"53.6800","5.3374","0.2829"
"53.7600","5.3443","0.2831"
"53.8400","5.3508","0.2836"
"53.9200","5.3575","0.2836"
"54.0000","5.3641","0.2839"
"54.0800","5.3707","0.2841"
"54.1600","5.3775","0.2837"
"54.2400","5.3841","0.2848"
"54.3200","5.3909","0.2845"
"54.4000","5.3975","0.2846"
"54.4800","5.4042","0.2850"
"54.5600","5.4108","0.2853"
"54.6400","5.4174","0.2848"
"54.7200","5.4242","0.2854"
"54.8000","5.4308","0.2857"
"54.8800","5.4374","0.2858"
"54.9600","5.4441","0.2862"
"55.0400","5.4509","0.2866"
"55.1200","5.4576","0.2860"
"55.2000","5.4642","0.2871"
"55.2800","5.4709","0.2865"
"55.3600","5.4775","0.2868"
"55.4400","5.4843","0.2875"
"55.5200","5.4908","0.2872"
"55.6000","5.4975","0.2876"
"55.6800","5.5042","0.2879"
"55.7600","5.5110","0.2880"
"55.8400","5.5175","0.2885"
"55.9200","5.5242","0.2887"
"56.0000","5.5309","0.2887"
"56.0800","5.5374","0.2887"
"56.1600","5.5441","0.2892"
"56.2400","5.5507","0.2891"
"56.3200","5.5576","0.2896"
"56.4000","5.5643","0.2900"
"56.4800","5.5709","0.2898"
"56.5600","5.5774","0.2900"
"56.6400","5.5842","0.2904"
"56.7200","5.5909","0.2906"
"56.8000","5.5974","0.2907"
"56.8800","5.6041","0.2911"
"56.9600","5.6108","0.2916"
"57.0400","5.6176","0.2914"
"57.1200","5.6241","0.2917"
"57.2000","5.6309","0.2916"
"57.2800","5.6376","0.2919"
"57.3600","5.6443","0.2921"
"57.4400","5.6508","0.2919"
"57.5200","5.6573","0.2922"
"57.6000","5.6641","0.2928"
"57.6800","5.6708","0.2930"
"57.7600","5.6775","0.2930"
"57.8400","5.6842","0.2933"
"57.9200","5.6909","0.2934"
"58.0000","5.6976","0.2933"
"58.0800","5.7040","0.2939"
"58.1600","5.7108","0.2941"
"58.2400","5.7174","0.2941"
"58.3200","5.7243","0.2947"
"58.4000","5.7308","0.2948"
"58.4800","5.7376","0.2946"
"58.5600","5.7442","0.2951"
"58.6400","5.7509","0.2952"
"58.7200","5.7575","0.2954"
"58.8000","5.7641","0.2957"
"58.8800","5.7709","0.2957"
"58.9600","5.7774","0.2960"
"59.0400","5.7842","0.2961"
"59.1200","5.7909","0.2956"
"59.2000","5.7976","0.2960"
"59.2800","5.8041","0.2963"
"59.3600","5.8108","0.2970"
"59.4400","5.8176","0.2966"
"59.5200","5.8242","0.2968"
"59.6000","5.8309","0.2973"
"59.6800","5.8374","0.2974"
"59.7600","5.8443","0.2974"
"59.8400","5.8509","0.2976"
"59.9200","5.8576","0.2978"
"60.0000","5.8642","0.2982"
"60.0800","5.8708","0.2984"
"60.1600","5.8776","0.2983"
"60.2400","5.8841","0.2992"
"60.3200","5.8908","0.2986"
"60.4000","5.8975","0.2987"
"60.4800","5.9043","0.2994"
"60.5600","5.9108","0.2996"
"60.6400","5.9175","0.2995"
"60.7200","5.9242","0.2997"
"60.8000","5.9308","0.2998"
"60.8800","5.9374","0.3003"
"60.9600","5.9441","0.3005"
"61.0400","5.9509","0.3006"
"61.1200","5.9576","0.3006"
"61.2000","5.9642","0.3008"
"61.2800","5.9707","0.3012"
"61.3600","5.9774","0.3016"
"61.4400","5.9842","0.3020"
"61.5200","5.9908","0.3016"
"61.6000","5.9976","0.3021"
"61.6800","6.0043","0.3026"
"61.7600","6.0110","0.3028"
"61.8400","6.0175","0.3025"
"61.9200","6.0242","0.3025"
"62.0000","6.0309","0.3031"
"62.0800","6.0375","0.3033"
"62.1600","6.0441","0.3032"
"62.2400","6.0507","0.3035"
"62.3200","6.0576","0.3035"
"62.4000","6.0642","0.3038"
"62.4800","6.0709","0.3039"
"62.5600","6.0775","0.3039"
"62.6400","6.0843","0.3047"
"62.7200","6.0908","0.3045"
"62.8000","6.0974","0.3046"
"62.8800","6.1041","0.3045"
"62.9600","6.1108","0.3051"
"63.0400","6.1176","0.3050"
"63.1200","6.1242","0.3050"
"63.2000","6.1309","0.3058"
"63.2800","6.1376","0.3054"
"63.3600","6.1442","0.3061"
"63.4400","6.1508","0.3058"
"63.5200","6.1574","0.3060"
"63.6000","6.1641","0.3061"
"63.6800","6.1708","0.3063"
"63.7600","6.1776","0.3064"
"63.8400","6.1842","0.3064"
"63.9200","6.1909","0.3067"
"64.0000","6.1975","0.3068"
"64.0800","6.2041","0.3069"
"64.1600","6.2109","0.3073"
"64.2400","6.2175","0.3070"
"64.3200","6.2242","0.3075"
"64.4000","6.2308","0.3078"
"64.4800","6.2375","0.3078"
"64.5600","6.2442","0.3078"
"64.6400","6.2509","0.3080"
"64.7200","6.2576","0.3078"
"64.8000","6.2641","0.3082"
"64.8800","6.2709","0.3079"
"64.9600","6.2775","0.3080"
"65.0400","6.2842","0.3084"
"65.1200","6.2908","0.3083"
"65.2000","6.2976","0.3085"
"65.2800","6.3041","0.3087"
"65.3600","6.3108","0.3090"
"65.4400","6.3176","0.3089"
"65.5200","6.3242","0.3090"
"65.6000","6.3309","0.3091"
"65.6800","6.3374","0.3092"
"65.7600","6.3443","0.3096"
"65.8400","6.3509","0.3095"
"65.9200","6.3575","0.3095"
"66.0000","6.3641","0.3099"
"66.0800","6.3708","0.3101"
"66.1600","6.3775","0.3103"
"66.2400","6.3841","0.3106"
"66.3200","6.3909","0.3102"
"66.4000","6.3976","0.3106"
"66.4800","6.4043","0.3106"
"66.5600","6.4108","0.3107"
"66.6400","6.4174","0.3106"
"66.7200","6.4242","0.3112"
"66.8000","6.4308","0.3115"
"66.8800","6.4375","0.3109"
"66.9600","6.4441","0.3116"
"67.0400","6.4509","0.3119"
"67.1200","6.4576","0.3119"
"67.2000","6.4642","0.3120"
"67.2800","6.4708","0.3117"
"67.3600","6.4774","0.3126"
"67.4400","6.4843","0.3129"
"67.5200","6.4908","0.3125"
"67.6000","6.4975","0.3129"
"67.6800","6.5043","0.3130"
"67.7600","6.5110","0.3131"
"67.8400","6.5175","0.3131"
"67.9200","6.5242","0.3137"
"68.0000","6.5309","0.3137"
"68.0800","6.5375","0.3137"
"68.1600","6.5441","0.3138"
"68.2400","6.5507","0.3141"
"68.3200","6.5576","0.3141"
"68.4000","6.5642","0.3142"
"68.4800","6.5709","0.3144"
"68.5600","6.5775","0.3143"
"68.6400","6.5843","0.3150"
"68.7200","6.5908","0.3145"
"68.8000","6.5974","0.3148"
"68.8800","6.6041","0.3151"
"68.9600","6.6108","0.3155"
"69.0400","6.6176","0.3152"
"69.1200","6.6241","0.3155"
"69.2000","6.6309","0.3156"
"69.2800","6.6376","0.3158"
"69.3600","6.6441","0.3156"
"69.4400","6.6507","0.3159"
"69.5200","6.6574","0.3161"
"69.6000","6.6642","0.3163"
"69.6800","6.6708","0.3163"
"69.7600","6.6775","0.3163"
"69.8400","6.6842","0.3169"
"69.9200","6.6909","0.3164"
"70.0000","6.6976","0.3168"
"70.0800","6.7041","0.3163"
"70.1600","6.7108","0.3172"
"70.2400","6.7175","0.3168"
"70.3200","6.7242","0.3174"
"70.4000","6.7308","0.3175"
"70.4800","6.7376","0.3176"
"70.5600","6.7442","0.3175"
"70.6400","6.7509","0.3178"
"70.7200","6.7576","0.3179"
"70.8000","6.7641","0.3181"
"70.8800","6.7709","0.3184"
"70.9600","6.7774","0.3182"
"71.0400","6.7842","0.3187"
"71.1200","6.7908","0.3187"
"71.2000","6.7976","0.3187"
"71.2800","6.8042","0.3192"
"71.3600","6.8108","0.3190"
"71.4400","6.8176","0.3193"
"71.5200","6.8241","0.3195"
"71.6000","6.8308","0.3195"
"71.6800","6.8374","0.3193"
"71.7600","6.8443","0.3199"
"71.8400","6.8509","0.3195"
"71.9200","6.8575","0.3197"
"72.0000","6.8641","0.3200"
"72.0800","6.8708","0.3202"
"72.1600","6.8775","0.3205"
"72.2400","6.8841","0.3204"
"72.3200","6.8909","0.3203"
"72.4000","6.8975","0.3205"
"72.4800","6.9043","0.3210"
"72.5600","6.9108","0.3214"
"72.6400","6.9174","0.3214"
"72.7200","6.9242","0.3214"
"72.8000","6.9308","0.3215"
"72.8800","6.9375","0.3215"
"72.9600","6.9441","0.3218"
"73.0400","6.9509","0.3221"
"73.1200","6.9575","0.3220"
"73.2000","6.9641","0.3219"
"73.2800","6.9708","0.3221"
"73.3600","6.9774","0.3219"
"73.4400","6.9842","0.3225"
"73.5200","6.9907","0.3220"
"73.6000","6.9975","0.3225"
"73.6800","7.0042","0.3228"
"73.7600","7.0110","0.3226"
"73.8400","7.0175","0.3227"
"73.9200","7.0242","0.3233"
"74.0000","7.0309","0.3231"
"74.0800","7.0375","0.3230"
"74.1600","7.0441","0.3232"
"74.2400","7.0507","0.3237"
"74.3200","7.0576","0.3235"
"74.4000","7.0642","0.3234"
"74.4800","7.0709","0.3234"
"74.5600","7.0775","0.3236"
"74.6400","7.0842","0.3242"
"74.7200","7.0908","0.3238"
"74.8000","7.0974","0.3238"
"74.8800","7.1041","0.3241"
"74.9600","7.1108","0.3244"
"75.0400","7.1176","0.3241"
"75.1200","7.1241","0.3247"
"75.2000","7.1309","0.3246"
"75.2800","7.1376","0.3248"
"75.3600","7.1442","0.3251"
"75.4400","7.1508","0.3250"
"75.5200","7.1574","0.3256"
"75.6000","7.1641","0.3254"
"75.6800","7.1708","0.3257"
"75.7600","7.1775","0.3254"
"75.8400","7.1841","0.3262"
"75.9200","7.1909","0.3257"
"76.0000","7.1976","0.3260"
"76.0800","7.2041","0.3263"
"76.1600","7.2108","0.3265"
"76.2400","7.2175","0.3265"
"76.3200","7.2243","0.3264"
"76.4000","7.2308","0.3266"
"76.4800","7.2376","0.3271"
"76.5600","7.2443","0.3269"
"76.6400","7.2509","0.3270"
"76.7200","7.2576","0.3268"
"76.8000","7.2641","0.3275"
"76.8800","7.2709","0.3272"
"76.9600","7.2774","0.3277"
"77.0400","7.2842","0.3272"
"77.1200","7.2908","0.3276"
"77.2000","7.2976","0.3278"
"77.2800","7.3042","0.3281"
"77.3600","7.3108","0.3281"
"77.4400","7.3175","0.3280"
"77.5200","7.3241","0.3280"
"77.6000","7.3309","0.3280"
"77.6800","7.3374","0.3279"
"77.7600","7.3442","0.3287"
"77.8400","7.3508","0.3288"
"77.9200","7.3575","0.3285"
"78.0000","7.3641","0.3292"
"78.0800","7.3708","0.3287"
"78.1600","7.3776","0.3291"
"78.2400","7.3841","0.3294"
"78.3200","7.3909","0.3290"
"78.4000","7.3975","0.3293"
"78.4800","7.4043","0.3294"
"78.5600","7.4108","0.3296"
"78.6400","7.4175","0.3295"
"78.7200","7.4242","0.3297"
"78.8000","7.4308","0.3297"
"78.8800","7.4374","0.3298"
"78.9600","7.4441","0.3300"
"79.0400","7.4509","0.3300"
"79.1200","7.4576","0.3300"
"79.2000","7.4642","0.3305"
"79.2800","7.4708","0.3305"
"79.3600","7.4775","0.3304"
"79.4400","7.4843","0.3304"
"79.5200","7.4908","0.3307"
"79.6000","7.4975","0.3309"
"79.6800","7.5043","0.3311"
"79.7600","7.5111","0.3313"
"79.8400","7.5175","0.3311"
"79.9200","7.5242","0.3312"
"80.0000","7.5309","0.3314"
"80.0800","7.5375","0.3315"
"80.1600","7.5441","0.3317"
"80.2400","7.5507","0.3317"
"80.3200","7.5576","0.3314"
"80.4000","7.5642","0.3319"
"80.4800","7.5709","0.3315"
"80.5600","7.5775","0.3319"
"80.6400","7.5842","0.3320"
"80.7200","7.5908","0.3321"
"80.8000","7.5974","0.3320"
"80.8800","7.6041","0.3322"
"80.9600","7.6108","0.3326"
"81.0400","7.6176","0.3323"
"81.1200","7.6241","0.3325"
"81.2000","7.6308","0.3325"
"81.2800","7.6376","0.3326"
"81.3600","7.6442","0.3327"
"81.4400","7.6508","0.3332"
"81.5200","7.6574","0.3331"
"81.6000","7.6642","0.3332"
"81.6800","7.6708","0.3334"
"81.7600","7.6775","0.3331"
"81.8400","7.6842","0.3334"
"81.9200","7.6909","0.3337"
"82.0000","7.6975","0.3336"
"82.0800","7.7041","0.3336"
"82.1600","7.7109","0.3342"
"82.2400","7.7176","0.3341"
"82.3200","7.7243","0.3338"
"82.4000","7.7308","0.3342"
"82.4800","7.7376","0.3339"
"82.5600","7.7443","0.3340"
"82.6400","7.7509","0.3345"
"82.7200","7.7576","0.3342"
"82.8000","7.7641","0.3346"
"82.8800","7.7709","0.3345"
"82.9600","7.7775","0.3345"
"83.0400","7.7843","0.3345"
"83.1200","7.7908","0.3347"
"83.2000","7.7976","0.3352"
"83.2800","7.8041","0.3347"
"83.3600","7.8108","0.3351"
"83.4400","7.8175","0.3350"
"83.5200","7.8242","0.3352"
"83.6000","7.8309","0.3352"
"83.6800","7.8374","0.3354"
"83.7600","7.8443","0.3355"
"83.8400","7.8508","0.3354"
"83.9200","7.8575","0.3356"
"84.0000","7.8641","0.3356"
"84.0800","7.8708","0.3360"
"84.1600","7.8775","0.3356"
"84.2400","7.8841","0.3364"
"84.3200","7.8908","0.3359"
"84.4000","7.8975","0.3362"
"84.4800","7.9043","0.3362"
"84.5600","7.9108","0.3364"
"84.6400","7.9174","0.3363"
"84.7200","7.9242","0.3366"
"84.8000","7.9308","0.3369"
"84.8800","7.9374","0.3366"
"84.9600","7.9441","0.3369"
"85.0400","7.9509","0.3366"
"85.1200","7.9576","0.3371"
"85.2000","7.9642","0.3372"
"85.2800","7.9708","0.3372"
"85.3600","7.9775","0.3376"
"85.4400","7.9842","0.3373"
"85.5200","7.9907","0.3372"
"85.6000","7.9975","0.3372"
"85.6800","8.0042","0.3375"
"85.7600","8.0110","0.3376"
"85.8400","8.0175","0.3375"
"85.9200","8.0242","0.3376"
"86.0000","8.0309","0.3375"
"86.0800","8.0374","0.3375"
"86.1600","8.0441","0.3375"
"86.2400","8.0507","0.3378"
"86.3200","8.0576","0.3378"
"86.4000","8.0642","0.3379"
"86.4800","8.0709","0.3381"
"86.5600","8.0775","0.3380"
"86.6400","8.0843","0.3381"
"86.7200","8.0908","0.3380"
"86.8000","8.0974","0.3381"
"86.8800","8.1041","0.3385"
"86.9600","8.1108","0.3383"
"87.0400","8.1175","0.3387"
"87.1200","8.1241","0.3385"
"87.2000","8.1309","0.3389"
"87.2800","8.1376","0.3387"
"87.3600","8.1442","0.3386"
"87.4400","8.1508","0.3393"
"87.5200","8.1574","0.3390"
"87.6000","8.1642","0.3392"
"87.6800","8.1708","0.3393"
"87.7600","8.1775","0.3393"
"87.8400","8.1841","0.3394"
"87.9200","8.1909","0.3395"
"88.0000","8.1976","0.3394"
"88.0800","8.2041","0.3399"
"88.1600","8.2108","0.3398"
"88.2400","8.2174","0.3398"
"88.3200","8.2243","0.3399"
"88.4000","8.2308","0.3404"
"88.4800","8.2376","0.3399"
"88.5600","8.2443","0.3401"
"88.6400","8.2509","0.3399"
"88.7200","8.2576","0.3398"
"88.8000","8.2641","0.3401"
"88.8800","8.2709","0.3404"
"88.9600","8.2774","0.3405"
"89.0400","8.2842","0.3407"
"89.1200","8.2908","0.3404"
"89.2000","8.2976","0.3405"
"89.2800","8.3041","0.3408"
"89.3600","8.3108","0.3409"
"89.4400","8.3176","0.3407"
"89.5200","8.3242","0.3407"
"89.6000","8.3309","0.3411"
"89.6800","8.3374","0.3408"
"89.7600","8.3443","0.3411"
"89.8400","8.3509","0.3410"
"89.9200","8.3575","0.3410"
"90.0000","8.3641","0.3410"
"90.0800","8.3708","0.3417"
"90.1600","8.3775","0.3414"
"90.2400","8.3841","0.3418"
"90.3200","8.3908","0.3415"
"90.4000","8.3975","0.3416"
"90.4800","8.4043","0.3417"
"90.5600","8.4108","0.3419"
"90.6400","8.4174","0.3418"
"90.7200","8.4242","0.3419"
"90.8000","8.4307","0.3419"
"90.8800","8.4375","0.3416"
"90.9600","8.4441","0.3422"
"91.0400","8.4509","0.3422"
"91.1200","8.4576","0.3422"
"91.2000","8.4642","0.3422"
"91.2800","8.4708","0.3425"
"91.3600","8.4774","0.3420"
"91.4400","8.4842","0.3425"
"91.5200","8.4908","0.3426"
"91.6000","8.4976","0.3430"
"91.6800","8.5042","0.3427"
"91.7600","8.5111","0.3431"
"91.8400","8.5175","0.3424"
"91.9200","8.5242","0.3429"
"92.0000","8.5309","0.3431"
"92.0800","8.5375","0.3431"
"92.1600","8.5441","0.3428"
"92.2400","8.5506","0.3428"
"92.3200","8.5575","0.3433"
"92.4000","8.5642","0.3429"
"92.4800","8.5709","0.3431"
"92.5600","8.5775","0.3428"
"92.6400","8.5843","0.3437"
"92.7200","8.5909","0.3433"
"92.8000","8.5974","0.3432"
"92.8800","8.6041","0.3433"
"92.9600","8.6108","0.3435"
"93.0400","8.6176","0.3436"
"93.1200","8.6241","0.3437"
"93.2000","8.6309","0.3435"
"93.2800","8.6376","0.3435"
"93.3600","8.6442","0.3438"
"93.4400","8.6508","0.3434"
"93.5200","8.6574","0.3438"
"93.6000","8.6642","0.3439"
"93.6800","8.6709","0.3437"
"93.7600","8.6776","0.3438"
"93.8400","8.6842","0.3438"
"93.9200","8.6909","0.3436"
"94.0000","8.6976","0.3437"
"94.0800","8.7041","0.3443"
"94.1600","8.7108","0.3441"
"94.2400","8.7175","0.3436"
"94.3200","8.7242","0.3440"
"94.4000","8.7308","0.3441"
"94.4800","8.7376","0.3440"
"94.5600","8.7443","0.3437"
"94.6400","8.7509","0.3438"
"94.7200","8.7576","0.3437"
"94.8000","8.7641","0.3439"
"94.8800","8.7709","0.3436"
"94.9600","8.7774","0.3438"
"95.0400","8.7842","0.3438"
"95.1200","8.7908","0.3439"
"95.2000","8.7976","0.3431"
"95.2800","8.8042","0.3438"
"95.3600","8.8108","0.3442"
"95.4400","8.8175","0.3434"
"95.5200","8.8241","0.3434"
"95.6000","8.8308","0.3439"
"95.6800","8.8374","0.3435"
"95.7600","8.8443","0.3434"
"95.8400","8.8509","0.3428"
"95.9200","8.8576","0.3433"
"96.0000","8.8641","0.3431"
"96.0800","8.8708","0.3431"
"96.1600","8.8775","0.3431"
"96.2400","8.8841","0.3430"
"96.3200","8.8909","0.3427"
"96.4000","8.8976","0.3422"
"96.4800","8.9043","0.3422"
"96.5600","8.9108","0.3419"
"96.6400","8.9174","0.3413"
"96.7200","8.9242","0.3411"
"96.8000","8.9308","0.3408"
"96.8800","8.9374","0.3405"
"96.9600","8.9441","0.3400"
"97.0400","8.9509","0.3392"
"97.1200","8.9576","0.3384"
"97.2000","8.9642","0.3378"
"97.2800","8.9708","0.3371"
"97.3600","8.9774","0.3366"
"97.4400","8.9843","0.3363"
"97.5200","8.9908","0.3355"
"97.6000","8.9975","0.3345"
"97.6800","9.0043","0.3337"
"97.7600","9.0110","0.3324"
"97.8400","9.0175","0.3310"
"97.9200","9.0242","0.3297"
"98.0000","9.0309","0.3287"
"98.0800","9.0375","0.3282"
"98.1600","9.0441","0.3263"
"98.2400","9.0507","0.3256"
"98.3200","9.0576","0.3244"
"98.4000","9.0642","0.3233"
"98.4800","9.0709","0.3218"
"98.5600","9.0775","0.3200"
"98.6400","9.0843","0.3174"
"98.7200","9.0909","-0.0035"
"98.8000","9.0974","0.0112"
"98.8800","9.1041","0.0108"
"98.9600","9.1109","0.0106"
"99.0400","9.1176","0.0108"
"99.1200","9.1241","0.0115"
"99.2000","9.1309","0.0114"
"99.2800","9.1376","0.0110"
"99.3600","9.1442","0.0110"
"99.4400","9.1507","0.0114"
"99.5200","9.1574","0.0111"
"99.6000","9.1642","0.0114"
"99.6800","9.1709","0.0116"
"99.7600","9.1775","0.0116"
"99.8400","9.1841","0.0115"
"99.9200","9.1909","0.0116"
"100.0000","9.1976","0.0117"
"100.0800","9.2041","0.0114"
"100.1600","9.2108","0.0119"
"100.2400","9.2175","0.0116"
"100.3200","9.2242","0.0117"
"100.4000","9.2308","0.0118"
"100.4800","9.2376","0.0121"
"100.5600","9.2443","0.0120"
"100.6400","9.2509","0.0117"
"100.7200","9.2575","0.0119"
"100.8000","9.2641","0.0123"
"100.8800","9.2709","0.0120"
"100.9600","9.2774","0.0120"
"101.0400","9.2842","0.0121"
"101.1200","9.2908","0.0120"
"101.2000","9.2976","0.0122"
"101.2800","9.3042","0.0120"
"101.3600","9.3108","0.0123"
"101.3660","9.3113","0.0124"