File: flexural/ES100_Trevor_Flexural_Data_8_1.csv
Specimen text inputs : Specimen text input  1,,""

Results Table 1
,Specimen text input  1
"8","f45_f2"

Results Table 2

Time,Displacement,Force
(s),(mm),(kN)
"0.0000","1.3880","0.0202"
"0.0800","1.3967","0.0221"
"0.1600","1.4007","0.0220"
"0.2400","1.4069","0.0225"
"0.3200","1.4136","0.0231"
"0.4000","1.4201","0.0236"
"0.4800","1.4268","0.0239"
"0.5600","1.4335","0.0246"
"0.6400","1.4403","0.0250"
"0.7200","1.4468","0.0262"
"0.8000","1.4534","0.0261"
"0.8800","1.4602","0.0269"
"0.9600","1.4668","0.0277"
"1.0400","1.4736","0.0277"
"1.1200","1.4801","0.0290"
"1.2000","1.4869","0.0288"
"1.2800","1.4936","0.0294"
"1.3600","1.5003","0.0300"
"1.4400","1.5069","0.0308"
"1.5200","1.5135","0.0311"
"1.6000","1.5203","0.0317"
"1.6800","1.5267","0.0323"
"1.7600","1.5335","0.0330"
"1.8400","1.5401","0.0337"
"1.9200","1.5469","0.0335"
"2.0000","1.5534","0.0348"
"2.0800","1.5602","0.0352"
"2.1600","1.5669","0.0357"
"2.2400","1.5736","0.0363"
"2.3200","1.5801","0.0367"
"2.4000","1.5868","0.0377"
"2.4800","1.5936","0.0380"
"2.5600","1.6001","0.0383"
"2.6400","1.6068","0.0388"
"2.7200","1.6134","0.0397"
"2.8000","1.6202","0.0400"
"2.8800","1.6269","0.0407"
"2.9600","1.6334","0.0412"
"3.0400","1.6401","0.0419"
"3.1200","1.6468","0.0418"
"3.2000","1.6536","0.0428"
"3.2800","1.6601","0.0431"
"3.3600","1.6668","0.0438"
"3.4400","1.6735","0.0441"
"3.5200","1.6801","0.0453"
"3.6000","1.6867","0.0457"
"3.6800","1.6934","0.0464"
"3.7600","1.7002","0.0465"
"3.8400","1.7069","0.0473"
"3.9200","1.7136","0.0477"
"4.0000","1.7202","0.0481"
"4.0800","1.7269","0.0489"
"4.1600","1.7336","0.0496"
"4.2400","1.7401","0.0501"
"4.3200","1.7469","0.0502"
"4.4000","1.7535","0.0510"
"4.4800","1.7603","0.0516"
"4.5600","1.7668","0.0522"
"4.6400","1.7736","0.0527"
"4.7200","1.7802","0.0532"
"4.8000","1.7868","0.0535"
"4.8800","1.7935","0.0545"
"4.9600","1.8001","0.0552"
"5.0400","1.8069","0.0555"
"5.1200","1.8134","0.0559"
"5.2000","1.8203","0.0566"
"5.2800","1.8268","0.0569"
"5.3600","1.8336","0.0579"
"5.4400","1.8401","0.0581"
"5.5200","1.8468","0.0587"
"5.6000","1.8534","0.0592"
"5.6800","1.8601","0.0600"
"5.7600","1.8668","0.0606"
"5.8400","1.8734","0.0611"
"5.9200","1.8803","0.0616"
"6.0000","1.8869","0.0621"
"6.0800","1.8935","0.0628"
"6.1600","1.9001","0.0633"
"6.2400","1.9068","0.0641"
"6.3200","1.9135","0.0642"
"6.4000","1.9201","0.0648"
"6.4800","1.9268","0.0654"
"6.5600","1.9335","0.0658"
"6.6400","1.9403","0.0667"
"6.7200","1.9469","0.0670"
"6.8000","1.9535","0.0681"
"6.8800","1.9602","0.0682"
"6.9600","1.9668","0.0690"
"7.0400","1.9736","0.0695"
"7.1200","1.9801","0.0699"
"7.2000","1.9869","0.0707"
"7.2800","1.9936","0.0712"
"7.3600","2.0002","0.0716"
"7.4400","2.0069","0.0723"
"7.5200","2.0135","0.0728"
"7.6000","2.0203","0.0731"
"7.6800","2.0267","0.0742"
"7.7600","2.0335","0.0744"
"7.8400","2.0401","0.0750"
"7.9200","2.0469","0.0754"
"8.0000","2.0534","0.0763"
"8.0800","2.0602","0.0767"
"8.1600","2.0669","0.0770"
"8.2400","2.0736","0.0781"
"8.3200","2.0802","0.0783"
"8.4000","2.0867","0.0788"
"8.4800","2.0936","0.0794"
"8.5600","2.1002","0.0795"
"8.6400","2.1069","0.0806"
"8.7200","2.1134","0.0809"
"8.8000","2.1202","0.0816"
"8.8800","2.1269","0.0820"
"8.9600","2.1334","0.0827"
"9.0400","2.1402","0.0833"
"9.1200","2.1468","0.0838"
"9.2000","2.1536","0.0846"
"9.2800","2.1601","0.0852"
"9.3600","2.1668","0.0859"
"9.4400","2.1735","0.0861"
"9.5200","2.1801","0.0865"
"9.6000","2.1868","0.0873"
"9.6800","2.1934","0.0877"
"9.7600","2.2003","0.0882"
"9.8400","2.2069","0.0889"
"9.9200","2.2136","0.0892"
"10.0000","2.2201","0.0901"
"10.0800","2.2269","0.0906"
"10.1600","2.2336","0.0912"
"10.2400","2.2401","0.0914"
"10.3200","2.2469","0.0918"
"10.4000","2.2536","0.0925"
"10.4800","2.2604","0.0931"
"10.5600","2.2668","0.0936"
"10.6400","2.2736","0.0941"
"10.7200","2.2802","0.0948"
"10.8000","2.2869","0.0952"
"10.8800","2.2935","0.0958"
"10.9600","2.3001","0.0963"
"11.0400","2.3069","0.0967"
"11.1200","2.3134","0.0973"
"11.2000","2.3203","0.0982"
"11.2800","2.3268","0.0985"
"11.3600","2.3336","0.0990"
"11.4400","2.3402","0.0995"
"11.5200","2.3468","0.0999"
"11.6000","2.3534","0.1007"
"11.6800","2.3601","0.1010"
"11.7600","2.3669","0.1019"
"11.8400","2.3734","0.1023"
"11.9200","2.3802","0.1027"
"12.0000","2.3869","0.1032"
"12.0800","2.3936","0.1037"
"12.1600","2.4001","0.1044"
"12.2400","2.4067","0.1047"
"12.3200","2.4134","0.1054"
"12.4000","2.4201","0.1056"
"12.4800","2.4269","0.1066"
"12.5600","2.4335","0.1072"
"12.6400","2.4402","0.1078"
"12.7200","2.4469","0.1079"
"12.8000","2.4534","0.1090"
"12.8800","2.4602","0.1094"
"12.9600","2.4669","0.1099"
"13.0400","2.4736","0.1104"
"13.1200","2.4801","0.1109"
"13.2000","2.4869","0.1115"
"13.2800","2.4936","0.1119"
"13.3600","2.5003","0.1126"
"13.4400","2.5069","0.1128"
"13.5200","2.5135","0.1138"
"13.6000","2.5203","0.1137"
"13.6800","2.5267","0.1147"
"13.7600","2.5335","0.1151"
"13.8400","2.5401","0.1156"
"13.9200","2.5469","0.1158"
"14.0000","2.5534","0.1167"
"14.0800","2.5602","0.1171"
"14.1600","2.5669","0.1174"
"14.2400","2.5736","0.1188"
"14.3200","2.5801","0.1187"
"14.4000","2.5867","0.1189"
"14.4800","2.5936","0.1199"
"14.5600","2.6002","0.1203"
"14.6400","2.6069","0.1207"
"14.7200","2.6134","0.1210"
"14.8000","2.6202","0.1216"
"14.8800","2.6269","0.1220"
"14.9600","2.6334","0.1231"
"15.0400","2.6402","0.1229"
"15.1200","2.6468","0.1239"
"15.2000","2.6536","0.1242"
"15.2800","2.6601","0.1249"
"15.3600","2.6668","0.1254"
"15.4400","2.6735","0.1257"
"15.5200","2.6801","0.1265"
"15.6000","2.6868","0.1268"
"15.6800","2.6934","0.1274"
"15.7600","2.7003","0.1277"
"15.8400","2.7069","0.1285"
"15.9200","2.7136","0.1289"
"16.0000","2.7201","0.1295"
"16.0800","2.7269","0.1295"
"16.1600","2.7336","0.1303"
"16.2400","2.7401","0.1306"
"16.3200","2.7469","0.1314"
"16.4000","2.7536","0.1320"
"16.4800","2.7603","0.1323"
"16.5600","2.7668","0.1330"
"16.6400","2.7736","0.1335"
"16.7200","2.7802","0.1339"
"16.8000","2.7869","0.1341"
"16.8800","2.7935","0.1346"
"16.9600","2.8001","0.1354"
"17.0400","2.8069","0.1360"
"17.1200","2.8135","0.1361"
"17.2000","2.8203","0.1368"
"17.2800","2.8268","0.1374"
"17.3600","2.8336","0.1378"
"17.4400","2.8401","0.1384"
"17.5200","2.8468","0.1389"
"17.6000","2.8534","0.1394"
"17.6800","2.8601","0.1398"
"17.7600","2.8668","0.1403"
"17.8400","2.8734","0.1409"
"17.9200","2.8803","0.1413"
"18.0000","2.8869","0.1418"
"18.0800","2.8935","0.1421"
"18.1600","2.9001","0.1428"
"18.2400","2.9068","0.1434"
"18.3200","2.9135","0.1437"
"18.4000","2.9201","0.1442"
"18.4800","2.9269","0.1441"
"18.5600","2.9335","0.1453"
"18.6400","2.9403","0.1459"
"18.7200","2.9469","0.1461"
"18.8000","2.9534","0.1466"
"18.8800","2.9602","0.1475"
"18.9600","2.9668","0.1476"
"19.0400","2.9735","0.1480"
"19.1200","2.9801","0.1486"
"19.2000","2.9869","0.1491"
"19.2800","2.9936","0.1497"
"19.3600","3.0003","0.1498"
"19.4400","3.0069","0.1507"
"19.5200","3.0135","0.1512"
"19.6000","3.0203","0.1516"
"19.6800","3.0267","0.1522"
"19.7600","3.0335","0.1521"
"19.8400","3.0401","0.1529"
"19.9200","3.0469","0.1535"
"20.0000","3.0534","0.1540"
"20.0800","3.0602","0.1545"
"20.1600","3.0669","0.1548"
"20.2400","3.0735","0.1555"
"20.3200","3.0801","0.1558"
"20.4000","3.0868","0.1562"
"20.4800","3.0936","0.1570"
"20.5600","3.1002","0.1576"
"20.6400","3.1069","0.1578"
"20.7200","3.1134","0.1583"
"20.8000","3.1202","0.1587"
"20.8800","3.1268","0.1596"
"20.9600","3.1334","0.1592"
"21.0400","3.1402","0.1608"
"21.1200","3.1469","0.1608"
"21.2000","3.1536","0.1611"
"21.2800","3.1601","0.1621"
"21.3600","3.1668","0.1619"
"21.4400","3.1735","0.1628"
"21.5200","3.1801","0.1628"
"21.6000","3.1867","0.1637"
"21.6800","3.1934","0.1643"
"21.7600","3.2003","0.1644"
"21.8400","3.2069","0.1651"
"21.9200","3.2136","0.1654"
"22.0000","3.2201","0.1662"
"22.0800","3.2269","0.1667"
"22.1600","3.2336","0.1670"
"22.2400","3.2401","0.1670"
"22.3200","3.2468","0.1675"
"22.4000","3.2535","0.1685"
"22.4800","3.2603","0.1687"
"22.5600","3.2668","0.1691"
"22.6400","3.2736","0.1696"
"22.7200","3.2802","0.1700"
"22.8000","3.2869","0.1704"
"22.8800","3.2934","0.1714"
"22.9600","3.3000","0.1714"
"23.0400","3.3069","0.1720"
"23.1200","3.3135","0.1723"
"23.2000","3.3203","0.1730"
"23.2800","3.3268","0.1733"
"23.3600","3.3336","0.1739"
"23.4400","3.3401","0.1743"
"23.5200","3.3467","0.1746"
"23.6000","3.3535","0.1751"
"23.6800","3.3602","0.1757"
"23.7600","3.3669","0.1763"
"23.8400","3.3734","0.1766"
"23.9200","3.3803","0.1768"
"24.0000","3.3869","0.1774"
"24.0800","3.3936","0.1780"
"24.1600","3.4001","0.1783"
"24.2400","3.4067","0.1789"
"24.3200","3.4135","0.1795"
"24.4000","3.4201","0.1798"
"24.4800","3.4268","0.1803"
"24.5600","3.4335","0.1809"
"24.6400","3.4402","0.1813"
"24.7200","3.4469","0.1813"
"24.8000","3.4534","0.1820"
"24.8800","3.4602","0.1827"
"24.9600","3.4668","0.1832"
"25.0400","3.4735","0.1833"
"25.1200","3.4801","0.1840"
"25.2000","3.4869","0.1839"
"25.2800","3.4936","0.1848"
"25.3600","3.5003","0.1847"
"25.4400","3.5069","0.1857"
"25.5200","3.5134","0.1862"
"25.6000","3.5202","0.1866"
"25.6800","3.5268","0.1869"
"25.7600","3.5335","0.1874"
"25.8400","3.5401","0.1877"
"25.9200","3.5469","0.1880"
"26.0000","3.5534","0.1890"
"26.0800","3.5602","0.1889"
"26.1600","3.5669","0.1896"
"26.2400","3.5735","0.1900"
"26.3200","3.5802","0.1902"
"26.4000","3.5868","0.1908"
"26.4800","3.5936","0.1914"
"26.5600","3.6002","0.1917"
"26.6400","3.6068","0.1921"
"26.7200","3.6134","0.1924"
"26.8000","3.6202","0.1930"
"26.8800","3.6269","0.1934"
"26.9600","3.6334","0.1942"
"27.0400","3.6401","0.1942"
"27.1200","3.6468","0.1944"
"27.2000","3.6536","0.1952"
"27.2800","3.6601","0.1957"
"27.3600","3.6669","0.1963"
"27.4400","3.6736","0.1965"
"27.5200","3.6801","0.1971"
"27.6000","3.6868","0.1975"
"27.6800","3.6934","0.1981"
"27.7600","3.7002","0.1982"
"27.8400","3.7069","0.1987"
"27.9200","3.7136","0.1989"
"28.0000","3.7202","0.1996"
"28.0800","3.7269","0.2002"
"28.1600","3.7336","0.2002"
"28.2400","3.7401","0.2012"
"28.3200","3.7468","0.2013"
"28.4000","3.7535","0.2017"
"28.4800","3.7604","0.2023"
"28.5600","3.7668","0.2025"
"28.6400","3.7735","0.2029"
"28.7200","3.7801","0.2035"
"28.8000","3.7868","0.2037"
"28.8800","3.7934","0.2046"
"28.9600","3.8001","0.2049"
"29.0400","3.8069","0.2046"
"29.1200","3.8135","0.2053"
"29.2000","3.8203","0.2060"
"29.2800","3.8268","0.2064"
"29.3600","3.8336","0.2068"
"29.4400","3.8402","0.2073"
"29.5200","3.8468","0.2077"
"29.6000","3.8534","0.2079"
"29.6800","3.8601","0.2083"
"29.7600","3.8669","0.2092"
"29.8400","3.8734","0.2095"
"29.9200","3.8802","0.2096"
"30.0000","3.8869","0.2101"
"30.0800","3.8935","0.2109"
"30.1600","3.9001","0.2110"
"30.2400","3.9068","0.2113"
"30.3200","3.9135","0.2118"
"30.4000","3.9201","0.2122"
"30.4800","3.9268","0.2130"
"30.5600","3.9335","0.2130"
"30.6400","3.9403","0.2133"
"30.7200","3.9469","0.2134"
"30.8000","3.9535","0.2145"
"30.8800","3.9602","0.2146"
"30.9600","3.9668","0.2151"
"31.0400","3.9735","0.2154"
"31.1200","3.9801","0.2159"
"31.2000","3.9869","0.2163"
"31.2800","3.9936","0.2170"
"31.3600","4.0003","0.2171"
"31.4400","4.0069","0.2174"
"31.5200","4.0134","0.2183"
"31.6000","4.0202","0.2185"
"31.6800","4.0268","0.2188"
"31.7600","4.0336","0.2192"
"31.8400","4.0401","0.2199"
"31.9200","4.0469","0.2197"
"32.0000","4.0534","0.2206"
"32.0800","4.0602","0.2209"
"32.1600","4.0669","0.2215"
"32.2400","4.0735","0.2217"
"32.3200","4.0801","0.2219"
"32.4000","4.0868","0.2224"
"32.4800","4.0936","0.2227"
"32.5600","4.1002","0.2230"
"32.6400","4.1069","0.2235"
"32.7200","4.1134","0.2238"
"32.8000","4.1203","0.2242"
"32.8800","4.1269","0.2244"
"32.9600","4.1334","0.2251"
"33.0400","4.1401","0.2259"
"33.1200","4.1468","0.2260"
"33.2000","4.1536","0.2261"
"33.2800","4.1601","0.2268"
"33.3600","4.1668","0.2271"
"33.4400","4.1735","0.2275"
"33.5200","4.1801","0.2280"
"33.6000","4.1868","0.2283"
"33.6800","4.1934","0.2289"
"33.7600","4.2003","0.2291"
"33.8400","4.2069","0.2296"
"33.9200","4.2136","0.2298"
"34.0000","4.2202","0.2305"
"34.0800","4.2269","0.2307"
"34.1600","4.2336","0.2308"
"34.2400","4.2401","0.2314"
"34.3200","4.2468","0.2320"
"34.4000","4.2535","0.2319"
"34.4800","4.2604","0.2329"
"34.5600","4.2669","0.2328"
"34.6400","4.2736","0.2337"
"34.7200","4.2802","0.2339"
"34.8000","4.2868","0.2342"
"34.8800","4.2935","0.2346"
"34.9600","4.3001","0.2353"
"35.0400","4.3069","0.2350"
"35.1200","4.3134","0.2357"
"35.2000","4.3203","0.2360"
"35.2800","4.3269","0.2363"
"35.3600","4.3336","0.2364"
"35.4400","4.3402","0.2369"
"35.5200","4.3468","0.2375"
"35.6000","4.3534","0.2378"
"35.6800","4.3601","0.2384"
"35.7600","4.3668","0.2388"
"35.8400","4.3734","0.2391"
"35.9200","4.3803","0.2399"
"36.0000","4.3869","0.2398"
"36.0800","4.3936","0.2402"
"36.1600","4.4001","0.2406"
"36.2400","4.4068","0.2409"
"36.3200","4.4135","0.2411"
"36.4000","4.4201","0.2417"
"36.4800","4.4269","0.2419"
"36.5600","4.4335","0.2425"
"36.6400","4.4403","0.2430"
"36.7200","4.4469","0.2432"
"36.8000","4.4534","0.2438"
"36.8800","4.4602","0.2438"
"36.9600","4.4668","0.2445"
"37.0400","4.4735","0.2449"
"37.1200","4.4801","0.2452"
"37.2000","4.4869","0.2452"
"37.2800","4.4936","0.2459"
"37.3600","4.5002","0.2463"
"37.4400","4.5069","0.2465"
"37.5200","4.5135","0.2470"
"37.6000","4.5202","0.2471"
"37.6800","4.5268","0.2478"
"37.7600","4.5336","0.2480"
"37.8400","4.5402","0.2483"
"37.9200","4.5469","0.2489"
"38.0000","4.5534","0.2492"
"38.0800","4.5602","0.2496"
"38.1600","4.5669","0.2501"
"38.2400","4.5735","0.2503"
"38.3200","4.5801","0.2503"
"38.4000","4.5868","0.2508"
"38.4800","4.5936","0.2514"
"38.5600","4.6002","0.2513"
"38.6400","4.6069","0.2516"
"38.7200","4.6135","0.2524"
"38.8000","4.6202","0.2529"
"38.8800","4.6269","0.2531"
"38.9600","4.6334","0.2537"
"39.0400","4.6401","0.2540"
"39.1200","4.6468","0.2541"
"39.2000","4.6536","0.2547"
"39.2800","4.6601","0.2548"
"39.3600","4.6668","0.2550"
"39.4400","4.6736","0.2559"
"39.5200","4.6801","0.2560"
"39.6000","4.6867","0.2561"
"39.6800","4.6934","0.2569"
"39.7600","4.7003","0.2570"
"39.8400","4.7069","0.2572"
"39.9200","4.7135","0.2574"
"40.0000","4.7201","0.2583"
"40.0800","4.7269","0.2584"
"40.1600","4.7336","0.2588"
"40.2400","4.7401","0.2594"
"40.3200","4.7469","0.2593"
"40.4000","4.7536","0.2600"
"40.4800","4.7603","0.2601"
"40.5600","4.7668","0.2607"
"40.6400","4.7735","0.2610"
"40.7200","4.7803","0.2613"
"40.8000","4.7869","0.2613"
"40.8800","4.7935","0.2618"
"40.9600","4.8001","0.2624"
"41.0400","4.8069","0.2627"
"41.1200","4.8134","0.2629"
"41.2000","4.8202","0.2632"
"41.2800","4.8268","0.2636"
"41.3600","4.8336","0.2641"
"41.4400","4.8402","0.2646"
"41.5200","4.8468","0.2645"
"41.6000","4.8534","0.2650"
"41.6800","4.8601","0.2655"
"41.7600","4.8669","0.2656"
"41.8400","4.8734","0.2663"
"41.9200","4.8803","0.2665"
"42.0000","4.8869","0.2669"
"42.0800","4.8936","0.2673"
"42.1600","4.9001","0.2676"
"42.2400","4.9068","0.2681"
"42.3200","4.9135","0.2682"
"42.4000","4.9201","0.2683"
"42.4800","4.9269","0.2687"
"42.5600","4.9335","0.2689"
"42.6400","4.9403","0.2693"
"42.7200","4.9469","0.2697"
"42.8000","4.9534","0.2707"
"42.8800","4.9602","0.2707"
"42.9600","4.9668","0.2709"
"43.0400","4.9736","0.2715"
"43.1200","4.9801","0.2714"
"43.2000","4.9869","0.2719"
"43.2800","4.9936","0.2725"
"43.3600","5.0002","0.2727"
"43.4400","5.0069","0.2728"
"43.5200","5.0135","0.2738"
"43.6000","5.0203","0.2737"
"43.6800","5.0268","0.2741"
"43.7600","5.0335","0.2741"
"43.8400","5.0401","0.2751"
"43.9200","5.0469","0.2748"
"44.0000","5.0534","0.2752"
"44.0800","5.0602","0.2759"
"44.1600","5.0669","0.2761"
"44.2400","5.0735","0.2769"
"44.3200","5.0801","0.2769"
"44.4000","5.0867","0.2771"
"44.4800","5.0936","0.2776"
"44.5600","5.1002","0.2778"
"44.6400","5.1069","0.2781"
"44.7200","5.1134","0.2781"
"44.8000","5.1202","0.2791"
"44.8800","5.1268","0.2793"
"44.9600","5.1334","0.2796"
"45.0400","5.1401","0.2800"
"45.1200","5.1469","0.2796"
"45.2000","5.1536","0.2804"
"45.2800","5.1601","0.2807"
"45.3600","5.1668","0.2811"
"45.4400","5.1735","0.2816"
"45.5200","5.1801","0.2818"
"45.6000","5.1868","0.2819"
"45.6800","5.1934","0.2826"
"45.7600","5.2003","0.2826"
"45.8400","5.2069","0.2833"
"45.9200","5.2136","0.2834"
"46.0000","5.2202","0.2840"
"46.0800","5.2269","0.2840"
"46.1600","5.2336","0.2844"
"46.2400","5.2401","0.2848"
"46.3200","5.2469","0.2849"
"46.4000","5.2536","0.2856"
"46.4800","5.2603","0.2856"
"46.5600","5.2668","0.2863"
"46.6400","5.2736","0.2867"
"46.7200","5.2803","0.2870"
"46.8000","5.2868","0.2871"
"46.8800","5.2934","0.2873"
"46.9600","5.3000","0.2879"
"47.0400","5.3068","0.2880"
"47.1200","5.3134","0.2885"
"47.2000","5.3203","0.2884"
"47.2800","5.3268","0.2890"
"47.3600","5.3336","0.2894"
"47.4400","5.3402","0.2898"
"47.5200","5.3468","0.2899"
"47.6000","5.3534","0.2904"
"47.6800","5.3601","0.2907"
"47.7600","5.3668","0.2912"
"47.8400","5.3734","0.2912"
"47.9200","5.3802","0.2912"
"48.0000","5.3869","0.2922"
"48.0800","5.3935","0.2927"
"48.1600","5.4001","0.2924"
"48.2400","5.4068","0.2929"
"48.3200","5.4135","0.2930"
"48.4000","5.4201","0.2936"
"48.4800","5.4268","0.2939"
"48.5600","5.4335","0.2942"
"48.6400","5.4402","0.2943"
"48.7200","5.4469","0.2946"
"48.8000","5.4535","0.2953"
"48.8800","5.4602","0.2957"
"48.9600","5.4668","0.2957"
"49.0400","5.4736","0.2958"
"49.1200","5.4801","0.2961"
"49.2000","5.4869","0.2964"
"49.2800","5.4936","0.2969"
"49.3600","5.5003","0.2972"
"49.4400","5.5069","0.2975"
"49.5200","5.5135","0.2979"
"49.6000","5.5203","0.2981"
"49.6800","5.5268","0.2990"
"49.7600","5.5335","0.2986"
"49.8400","5.5401","0.2991"
"49.9200","5.5469","0.2994"
"50.0000","5.5534","0.2999"
"50.0800","5.5602","0.3002"
"50.1600","5.5669","0.3001"
"50.2400","5.5735","0.3005"
"50.3200","5.5801","0.3006"
"50.4000","5.5868","0.3009"
"50.4800","5.5936","0.3017"
"50.5600","5.6002","0.3014"
"50.6400","5.6069","0.3018"
"50.7200","5.6134","0.3022"
"50.8000","5.6202","0.3028"
"50.8800","5.6269","0.3028"
"50.9600","5.6334","0.3033"
"51.0400","5.6402","0.3036"
"51.1200","5.6469","0.3035"
"51.2000","5.6536","0.3042"
"51.2800","5.6601","0.3043"
"51.3600","5.6667","0.3045"
"51.4400","5.6735","0.3048"
"51.5200","5.6802","0.3051"
"51.6000","5.6868","0.3057"
"51.6800","5.6934","0.3062"
"51.7600","5.7003","0.3061"
"51.8400","5.7069","0.3063"
"51.9200","5.7136","0.3065"
"52.0000","5.7202","0.3068"
"52.0800","5.7269","0.3076"
"52.1600","5.7336","0.3076"
"52.2400","5.7401","0.3080"
"52.3200","5.7468","0.3080"
"52.4000","5.7534","0.3082"
"52.4800","5.7603","0.3085"
"52.5600","5.7668","0.3092"
"52.6400","5.7736","0.3091"
"52.7200","5.7802","0.3094"
"52.8000","5.7869","0.3097"
"52.8800","5.7934","0.3099"
"52.9600","5.8000","0.3103"
"53.0400","5.8069","0.3103"
"53.1200","5.8135","0.3104"
"53.2000","5.8203","0.3112"
"53.2800","5.8268","0.3114"
"53.3600","5.8336","0.3120"
"53.4400","5.8401","0.3119"
"53.5200","5.8467","0.3122"
"53.6000","5.8535","0.3121"
"53.6800","5.8602","0.3128"
"53.7600","5.8669","0.3129"
"53.8400","5.8734","0.3136"
"53.9200","5.8802","0.3137"
"54.0000","5.8869","0.3135"
"54.0800","5.8936","0.3140"
"54.1600","5.9001","0.3141"
"54.2400","5.9068","0.3149"
"54.3200","5.9135","0.3146"
"54.4000","5.9201","0.3153"
"54.4800","5.9268","0.3156"
"54.5600","5.9335","0.3160"
"54.6400","5.9402","0.3161"
"54.7200","5.9469","0.3157"
"54.8000","5.9535","0.3166"
"54.8800","5.9602","0.3171"
"54.9600","5.9668","0.3169"
"55.0400","5.9735","0.3172"
"55.1200","5.9801","0.3179"
"55.2000","5.9869","0.3179"
"55.2800","5.9936","0.3181"
"55.3600","6.0002","0.3185"
"55.4400","6.0069","0.3181"
"55.5200","6.0135","0.3187"
"55.6000","6.0202","0.3193"
"55.6800","6.0268","0.3193"
"55.7600","6.0335","0.3196"
"55.8400","6.0402","0.3199"
"55.9200","6.0469","0.3202"
"56.0000","6.0534","0.3204"
"56.0800","6.0602","0.3205"
"56.1600","6.0669","0.3211"
"56.2400","6.0735","0.3211"
"56.3200","6.0801","0.3217"
"56.4000","6.0868","0.3220"
"56.4800","6.0936","0.3221"
"56.5600","6.1002","0.3221"
"56.6400","6.1069","0.3224"
"56.7200","6.1134","0.3227"
"56.8000","6.1202","0.3230"
"56.8800","6.1269","0.3231"
"56.9600","6.1334","0.3236"
"57.0400","6.1402","0.3238"
"57.1200","6.1469","0.3236"
"57.2000","6.1536","0.3244"
"57.2800","6.1601","0.3246"
"57.3600","6.1668","0.3250"
"57.4400","6.1736","0.3252"
"57.5200","6.1802","0.3254"
"57.6000","6.1868","0.3256"
"57.6800","6.1934","0.3256"
"57.7600","6.2003","0.3261"
"57.8400","6.2069","0.3267"
"57.9200","6.2136","0.3262"
"58.0000","6.2202","0.3268"
"58.0800","6.2269","0.3271"
"58.1600","6.2336","0.3274"
"58.2400","6.2401","0.3275"
"58.3200","6.2468","0.3278"
"58.4000","6.2536","0.3282"
"58.4800","6.2603","0.3284"
"58.5600","6.2668","0.3286"
"58.6400","6.2736","0.3287"
"58.7200","6.2802","0.3291"
"58.8000","6.2868","0.3292"
"58.8800","6.2935","0.3297"
"58.9600","6.3001","0.3297"
"59.0400","6.3069","0.3300"
"59.1200","6.3135","0.3303"
"59.2000","6.3203","0.3305"
"59.2800","6.3268","0.3304"
"59.3600","6.3336","0.3312"
"59.4400","6.3401","0.3309"
"59.5200","6.3468","0.3312"
"59.6000","6.3535","0.3314"
"59.6800","6.3601","0.3319"
"59.7600","6.3668","0.3323"
"59.8400","6.3734","0.3322"
"59.9200","6.3802","0.3325"
"60.0000","6.3869","0.3328"
"60.0800","6.3936","0.3332"
"60.1600","6.4001","0.3334"
"60.2400","6.4068","0.3337"
"60.3200","6.4135","0.3334"
"60.4000","6.4201","0.3341"
"60.4800","6.4268","0.3344"
"60.5600","6.4335","0.3345"
"60.6400","6.4402","0.3345"
"60.7200","6.4469","0.3348"
"60.8000","6.4534","0.3352"
"60.8800","6.4602","0.3355"
"60.9600","6.4668","0.3355"
"61.0400","6.4735","0.3359"
"61.1200","6.4801","0.3364"
"61.2000","6.4869","0.3360"
"61.2800","6.4936","0.3369"
"61.3600","6.5003","0.3368"
"61.4400","6.5069","0.3369"
"61.5200","6.5135","0.3374"
"61.6000","6.5203","0.3376"
"61.6800","6.5268","0.3377"
"61.7600","6.5335","0.3379"
"61.8400","6.5401","0.3382"
"61.9200","6.5469","0.3384"
"62.0000","6.5534","0.3389"
"62.0800","6.5601","0.3390"
"62.1600","6.5669","0.3394"
"62.2400","6.5735","0.3397"
"62.3200","6.5802","0.3396"
"62.4000","6.5868","0.3397"
"62.4800","6.5936","0.3398"
"62.5600","6.6002","0.3402"
"62.6400","6.6068","0.3404"
"62.7200","6.6134","0.3405"
"62.8000","6.6202","0.3408"
"62.8800","6.6268","0.3415"
"62.9600","6.6334","0.3412"
"63.0400","6.6401","0.3415"
"63.1200","6.6468","0.3418"
"63.2000","6.6536","0.3421"
"63.2800","6.6601","0.3423"
"63.3600","6.6668","0.3423"
"63.4400","6.6736","0.3426"
"63.5200","6.6802","0.3427"
"63.6000","6.6868","0.3431"
"63.6800","6.6934","0.3434"
"63.7600","6.7003","0.3435"
"63.8400","6.7069","0.3439"
"63.9200","6.7136","0.3440"
"64.0000","6.7202","0.3445"
"64.0800","6.7269","0.3444"
"64.1600","6.7336","0.3445"
"64.2400","6.7401","0.3449"
"64.3200","6.7468","0.3451"
"64.4000","6.7536","0.3453"
"64.4800","6.7604","0.3457"
"64.5600","6.7668","0.3457"
"64.6400","6.7736","0.3462"
"64.7200","6.7802","0.3463"
"64.8000","6.7868","0.3464"
"64.8800","6.7935","0.3468"
"64.9600","6.8001","0.3472"
"65.0400","6.8069","0.3470"
"65.1200","6.8134","0.3474"
"65.2000","6.8203","0.3472"
"65.2800","6.8269","0.3476"
"65.3600","6.8336","0.3478"
"65.4400","6.8402","0.3484"
"65.5200","6.8468","0.3481"
"65.6000","6.8535","0.3483"
"65.6800","6.8601","0.3486"
"65.7600","6.8668","0.3489"
"65.8400","6.8734","0.3491"
"65.9200","6.8803","0.3495"
"66.0000","6.8869","0.3495"
"66.0800","6.8936","0.3496"
"66.1600","6.9002","0.3502"
"66.2400","6.9068","0.3504"
"66.3200","6.9134","0.3504"
"66.4000","6.9201","0.3506"
"66.4800","6.9269","0.3509"
"66.5600","6.9335","0.3508"
"66.6400","6.9403","0.3513"
"66.7200","6.9469","0.3516"
"66.8000","6.9534","0.3519"
"66.8800","6.9601","0.3522"
"66.9600","6.9667","0.3521"
"67.0400","6.9735","0.3523"
"67.1200","6.9801","0.3526"
"67.2000","6.9869","0.3527"
"67.2800","6.9936","0.3533"
"67.3600","7.0002","0.3535"
"67.4400","7.0069","0.3533"
"67.5200","7.0135","0.3537"
"67.6000","7.0202","0.3539"
"67.6800","7.0268","0.3541"
"67.7600","7.0335","0.3544"
"67.8400","7.0401","0.3544"
"67.9200","7.0469","0.3548"
"68.0000","7.0534","0.3551"
"68.0800","7.0602","0.3552"
"68.1600","7.0669","0.3558"
"68.2400","7.0735","0.3557"
"68.3200","7.0801","0.3559"
"68.4000","7.0868","0.3561"
"68.4800","7.0936","0.3561"
"68.5600","7.1002","0.3564"
"68.6400","7.1069","0.3566"
"68.7200","7.1135","0.3567"
"68.8000","7.1202","0.3569"
"68.8800","7.1269","0.3570"
"68.9600","7.1334","0.3573"
"69.0400","7.1401","0.3576"
"69.1200","7.1469","0.3578"
"69.2000","7.1536","0.3581"
"69.2800","7.1601","0.3583"
"69.3600","7.1668","0.3585"
"69.4400","7.1736","0.3589"
"69.5200","7.1801","0.3588"
"69.6000","7.1868","0.3590"
"69.6800","7.1934","0.3592"
"69.7600","7.2003","0.3596"
"69.8400","7.2069","0.3596"
"69.9200","7.2136","0.3599"
"70.0000","7.2201","0.3601"
"70.0800","7.2268","0.3604"
"70.1600","7.2336","0.3606"
"70.2400","7.2401","0.3607"
"70.3200","7.2468","0.3606"
"70.4000","7.2535","0.3608"
"70.4800","7.2603","0.3613"
"70.5600","7.2668","0.3614"
"70.6400","7.2736","0.3617"
"70.7200","7.2803","0.3616"
"70.8000","7.2869","0.3622"
"70.8800","7.2934","0.3626"
"70.9600","7.3001","0.3625"
"71.0400","7.3069","0.3626"
"71.1200","7.3135","0.3630"
"71.2000","7.3202","0.3629"
"71.2800","7.3269","0.3630"
"71.3600","7.3337","0.3636"
"71.4400","7.3402","0.3636"
"71.5200","7.3467","0.3638"
"71.6000","7.3534","0.3642"
"71.6800","7.3601","0.3643"
"71.7600","7.3668","0.3644"
"71.8400","7.3734","0.3647"
"71.9200","7.3803","0.3650"
"72.0000","7.3869","0.3652"
"72.0800","7.3935","0.3653"
"72.1600","7.4001","0.3655"
"72.2400","7.4068","0.3655"
"72.3200","7.4135","0.3657"
"72.4000","7.4201","0.3658"
"72.4800","7.4268","0.3663"
"72.5600","7.4335","0.3662"
"72.6400","7.4403","0.3665"
"72.7200","7.4469","0.3671"
"72.8000","7.4534","0.3670"
"72.8800","7.4602","0.3672"
"72.9600","7.4668","0.3673"
"73.0400","7.4735","0.3673"
"73.1200","7.4801","0.3681"
"73.2000","7.4869","0.3677"
"73.2800","7.4936","0.3679"
"73.3600","7.5003","0.3683"
"73.4400","7.5069","0.3681"
"73.5200","7.5135","0.3685"
"73.6000","7.5202","0.3688"
"73.6800","7.5267","0.3692"
"73.7600","7.5335","0.3692"
"73.8400","7.5401","0.3695"
"73.9200","7.5469","0.3693"
"74.0000","7.5535","0.3699"
"74.0800","7.5602","0.3701"
"74.1600","7.5669","0.3703"
"74.2400","7.5735","0.3701"
"74.3200","7.5801","0.3701"
"74.4000","7.5867","0.3708"
"74.4800","7.5936","0.3707"
"74.5600","7.6002","0.3709"
"74.6400","7.6069","0.3712"
"74.7200","7.6134","0.3715"
"74.8000","7.6202","0.3715"
"74.8800","7.6269","0.3716"
"74.9600","7.6334","0.3720"
"75.0400","7.6401","0.3720"
"75.1200","7.6469","0.3720"
"75.2000","7.6536","0.3728"
"75.2800","7.6601","0.3729"
"75.3600","7.6668","0.3729"
"75.4400","7.6736","0.3729"
"75.5200","7.6801","0.3733"
"75.6000","7.6868","0.3731"
"75.6800","7.6934","0.3737"
"75.7600","7.7003","0.3740"
"75.8400","7.7069","0.3739"
"75.9200","7.7136","0.3737"
"76.0000","7.7201","0.3743"
"76.0800","7.7269","0.3744"
"76.1600","7.7336","0.3747"
"76.2400","7.7401","0.3748"
"76.3200","7.7469","0.3749"
"76.4000","7.7536","0.3752"
"76.4800","7.7603","0.3748"
"76.5600","7.7668","0.3755"
"76.6400","7.7736","0.3759"
"76.7200","7.7803","0.3755"
"76.8000","7.7869","0.3758"
"76.8800","7.7934","0.3761"
"76.9600","7.8001","0.3763"
"77.0400","7.8068","0.3763"
"77.1200","7.8134","0.3768"
"77.2000","7.8203","0.3769"
"77.2800","7.8269","0.3768"
"77.3600","7.8336","0.3771"
"77.4400","7.8402","0.3772"
"77.5200","7.8468","0.3776"
"77.6000","7.8534","0.3775"
"77.6800","7.8601","0.3776"
"77.7600","7.8669","0.3779"
"77.8400","7.8735","0.3783"
"77.9200","7.8802","0.3783"
"78.0000","7.8869","0.3785"
"78.0800","7.8935","0.3785"
"78.1600","7.9001","0.3787"
"78.2400","7.9068","0.3791"
"78.3200","7.9135","0.3790"
"78.4000","7.9201","0.3793"
"78.4800","7.9269","0.3799"
"78.5600","7.9335","0.3794"
"78.6400","7.9403","0.3799"
"78.7200","7.9469","0.3797"
"78.8000","7.9534","0.3799"
"78.8800","7.9602","0.3803"
"78.9600","7.9667","0.3804"
"79.0400","7.9735","0.3809"
"79.1200","7.9801","0.3811"
"79.2000","7.9869","0.3806"
"79.2800","7.9936","0.3811"
"79.3600","8.0003","0.3810"
"79.4400","8.0069","0.3817"
"79.5200","8.0135","0.3817"
"79.6000","8.0203","0.3816"
"79.6800","8.0268","0.3822"
"79.7600","8.0334","0.3818"
"79.8400","8.0401","0.3824"
"79.9200","8.0469","0.3824"
"80.0000","8.0535","0.3827"
"80.0800","8.0602","0.3828"
"80.1600","8.0669","0.3832"
"80.2400","8.0735","0.3832"
"80.3200","8.0801","0.3833"
"80.4000","8.0868","0.3832"
"80.4800","8.0936","0.3836"
"80.5600","8.1002","0.3841"
"80.6400","8.1069","0.3837"
"80.7200","8.1134","0.3840"
"80.8000","8.1202","0.3839"
"80.8800","8.1268","0.3845"
"80.9600","8.1334","0.3846"
"81.0400","8.1401","0.3847"
"81.1200","8.1469","0.3850"
"81.2000","8.1536","0.3852"
"81.2800","8.1601","0.3853"
"81.3600","8.1668","0.3853"
"81.4400","8.1736","0.3857"
"81.5200","8.1802","0.3861"
"81.6000","8.1868","0.3854"
"81.6800","8.1934","0.3863"
"81.7600","8.2003","0.3861"
"81.8400","8.2068","0.3862"
"81.9200","8.2135","0.3864"
"82.0000","8.2201","0.3867"
"82.0800","8.2269","0.3870"
"82.1600","8.2336","0.3871"
"82.2400","8.2401","0.3870"
"82.3200","8.2468","0.3870"
"82.4000","8.2535","0.3872"
"82.4800","8.2603","0.3876"
"82.5600","8.2668","0.3879"
"82.6400","8.2736","0.3880"
"82.7200","8.2803","0.3884"
"82.8000","8.2869","0.3881"
"82.8800","8.2934","0.3886"
"82.9600","8.3000","0.3886"
"83.0400","8.3069","0.3887"
"83.1200","8.3135","0.3888"
"83.2000","8.3203","0.3893"
"83.2800","8.3269","0.3891"
"83.3600","8.3336","0.3892"
"83.4400","8.3401","0.3894"
"83.5200","8.3468","0.3897"
"83.6000","8.3535","0.3896"
"83.6800","8.3602","0.3898"
"83.7600","8.3669","0.3902"
"83.8400","8.3734","0.3903"
"83.9200","8.3802","0.3902"
"84.0000","8.3869","0.3904"
"84.0800","8.3935","0.3907"
"84.1600","8.4001","0.3910"
"84.2400","8.4068","0.3913"
"84.3200","8.4135","0.3910"
"84.4000","8.4201","0.3914"
"84.4800","8.4268","0.3914"
"84.5600","8.4335","0.3914"
"84.6400","8.4403","0.3917"
"84.7200","8.4469","0.3914"
"84.8000","8.4535","0.3920"
"84.8800","8.4602","0.3922"
"84.9600","8.4668","0.3923"
"85.0400","8.4735","0.3926"
"85.1200","8.4801","0.3928"
"85.2000","8.4869","0.3926"
"85.2800","8.4936","0.3930"
"85.3600","8.5002","0.3929"
"85.4400","8.5069","0.3933"
"85.5200","8.5135","0.3937"
"85.6000","8.5202","0.3933"
"85.6800","8.5268","0.3934"
"85.7600","8.5335","0.3937"
"85.8400","8.5401","0.3940"
"85.9200","8.5469","0.3941"
"86.0000","8.5534","0.3943"
"86.0800","8.5601","0.3943"
"86.1600","8.5669","0.3948"
"86.2400","8.5736","0.3944"
"86.3200","8.5802","0.3945"
"86.4000","8.5867","0.3949"
"86.4800","8.5936","0.3947"
"86.5600","8.6002","0.3951"
"86.6400","8.6069","0.3954"
"86.7200","8.6134","0.3956"
"86.8000","8.6202","0.3958"
"86.8800","8.6269","0.3956"
"86.9600","8.6334","0.3959"
"87.0400","8.6401","0.3959"
"87.1200","8.6469","0.3962"
"87.2000","8.6536","0.3960"
"87.2800","8.6601","0.3963"
"87.3600","8.6668","0.3964"
"87.4400","8.6736","0.3966"
"87.5200","8.6802","0.3967"
"87.6000","8.6868","0.3965"
"87.6800","8.6934","0.3972"
"87.7600","8.7002","0.3968"
"87.8400","8.7069","0.3977"
"87.9200","8.7136","0.3973"
"88.0000","8.7202","0.3974"
"88.0800","8.7269","0.3979"
"88.1600","8.7336","0.3981"
"88.2400","8.7401","0.3984"
"88.3200","8.7468","0.3980"
"88.4000","8.7535","0.3983"
"88.4800","8.7603","0.3983"
"88.5600","8.7668","0.3988"
"88.6400","8.7736","0.3987"
"88.7200","8.7802","0.3987"
"88.8000","8.7868","0.3988"
"88.8800","8.7934","0.3995"
"88.9600","8.8001","0.3993"
"89.0400","8.8069","0.3993"
"89.1200","8.8135","0.3995"
"89.2000","8.8203","0.3997"
"89.2800","8.8268","0.3996"
"89.3600","8.8336","0.3998"
"89.4400","8.8401","0.4002"
"89.5200","8.8468","0.4000"
"89.6000","8.8535","0.4002"
"89.6800","8.8601","0.4003"
"89.7600","8.8669","0.4010"
"89.8400","8.8734","0.4007"
"89.9200","8.8802","0.4006"
"90.0000","8.8869","0.4007"
"90.0800","8.8936","0.4013"
"90.1600","8.9002","0.4012"
"90.2400","8.9067","0.4012"
"90.3200","8.9135","0.4016"
"90.4000","8.9201","0.4015"
"90.4800","8.9269","0.4018"
"90.5600","8.9335","0.4019"
"90.6400","8.9403","0.4023"
"90.7200","8.9469","0.4021"
"90.8000","8.9535","0.4024"
"90.8800","8.9602","0.4026"
"90.9600","8.9668","0.4023"
"91.0400","8.9735","0.4027"
"91.1200","8.9801","0.4028"
"91.2000","8.9869","0.4031"
"91.2800","8.9936","0.4033"
"91.3600","9.0002","0.4030"
"91.4400","9.0069","0.4031"
"91.5200","9.0134","0.4034"
"91.6000","9.0202","0.4036"
"91.6800","9.0267","0.4040"
"91.7600","9.0336","0.4036"
"91.8400","9.0402","0.4037"
"91.9200","9.0469","0.4038"
"92.0000","9.0534","0.4043"
"92.0800","9.0602","0.4044"
"92.1600","9.0669","0.4044"
"92.2400","9.0735","0.4050"
"92.3200","9.0801","0.4046"
"92.4000","9.0868","0.4047"
"92.4800","9.0936","0.4050"
"92.5600","9.1002","0.4049"
"92.6400","9.1069","0.4051"
"92.7200","9.1134","0.4055"
"92.8000","9.1202","0.4056"
"92.8800","9.1269","0.4053"
"92.9600","9.1334","0.4056"
"93.0400","9.1401","0.4058"
"93.1200","9.1468","0.4059"
"93.2000","9.1536","0.4063"
"93.2800","9.1601","0.4060"
"93.3600","9.1668","0.4064"
"93.4400","9.1736","0.4065"
"93.5200","9.1802","0.4066"
"93.6000","9.1868","0.4069"
"93.6800","9.1934","0.4068"
"93.7600","9.2003","0.4071"
"93.8400","9.2069","0.4073"
"93.9200","9.2136","0.4066"
"94.0000","9.2202","0.4075"
"94.0800","9.2268","0.4073"
"94.1600","9.2335","0.4078"
"94.2400","9.2401","0.4075"
"94.3200","9.2468","0.4076"
"94.4000","9.2536","0.4079"
"94.4800","9.2603","0.4081"
"94.5600","9.2668","0.4085"
"94.6400","9.2736","0.4082"
"94.7200","9.2802","0.4086"
"94.8000","9.2868","0.4086"
"94.8800","9.2934","0.4089"
"94.9600","9.3001","0.4087"
"95.0400","9.3069","0.4089"
"95.1200","9.3135","0.4092"
"95.2000","9.3202","0.4091"
"95.2800","9.3268","0.4091"
"95.3600","9.3336","0.4092"
"95.4400","9.3402","0.4095"
"95.5200","9.3468","0.4094"
"95.6000","9.3535","0.4094"
"95.6800","9.3601","0.4096"
"95.7600","9.3668","0.4097"
"95.8400","9.3734","0.4097"
"95.9200","9.3802","0.4094"
"96.0000","9.3869","0.4100"
"96.0800","9.3936","0.4100"
"96.1600","9.4001","0.4098"
"96.2400","9.4067","0.4101"
"96.3200","9.4135","0.4102"
"96.4000","9.4201","0.4105"
"96.4800","9.4268","0.4103"
"96.5600","9.4335","0.4106"
"96.6400","9.4403","0.4109"
"96.7200","9.4469","0.4105"
"96.8000","9.4534","0.4111"
"96.8800","9.4602","0.4109"
"96.9600","9.4668","0.4113"
"97.0400","9.4735","0.4113"
"97.1200","9.4801","0.4114"
"97.2000","9.4869","0.4115"
"97.2800","9.4936","0.4118"
"97.3600","9.5002","0.4116"
"97.4400","9.5069","0.4115"
"97.5200","9.5135","0.4118"
"97.6000","9.5203","0.4119"
"97.6800","9.5267","0.4114"
"97.7600","9.5335","0.4123"
"97.8400","9.5401","0.4119"
"97.9200","9.5469","0.4121"
"98.0000","9.5534","0.4124"
"98.0800","9.5601","0.4122"
"98.1600","9.5669","0.4130"
"98.2400","9.5736","0.4129"
"98.3200","9.5802","0.4126"
"98.4000","9.5867","0.4127"
"98.4800","9.5936","0.4135"
"98.5600","9.6002","0.4131"
"98.6400","9.6069","0.4133"
"98.7200","9.6135","0.4131"
"98.8000","9.6202","0.4136"
"98.8800","9.6269","0.4138"
"98.9600","9.6334","0.4137"
"99.0400","9.6401","0.4138"
"99.1200","9.6469","0.4135"
"99.2000","9.6536","0.4139"
"99.2800","9.6601","0.4139"
"99.3600","9.6668","0.4141"
"99.4400","9.6736","0.4141"
"99.5200","9.6801","0.4141"
"99.6000","9.6868","0.4146"
"99.6800","9.6934","0.4144"
"99.7600","9.7003","0.4148"
"99.8400","9.7069","0.4148"
"99.9200","9.7136","0.4145"
"100.0000","9.7202","0.4148"
"100.0800","9.7269","0.4149"
"100.1600","9.7336","0.4153"
"100.2400","9.7401","0.4153"
"100.3200","9.7469","0.4152"
"100.4000","9.7536","0.4153"
"100.4800","9.7603","0.4155"
"100.5600","9.7668","0.4156"
"100.6400","9.7736","0.4156"
"100.7200","9.7803","0.4157"
"100.8000","9.7869","0.4157"
"100.8800","9.7935","0.4158"
"100.9600","9.8001","0.4163"
"101.0400","9.8069","0.4158"
"101.1200","9.8134","0.4159"
"101.2000","9.8203","0.4164"
"101.2800","9.8268","0.4162"
"101.3600","9.8336","0.4165"
"101.4400","9.8401","0.4158"
"101.5200","9.8468","0.4156"
"101.6000","9.8534","0.4163"
"101.6800","9.8601","0.4156"
"101.7600","9.8668","0.4161"
"101.8400","9.8735","0.4162"
"101.9200","9.8802","0.4160"
"102.0000","9.8869","0.4156"
"102.0800","9.8935","0.4159"
"102.1600","9.9001","0.4157"
"102.2400","9.9067","0.4160"
"102.3200","9.9135","0.4160"
"102.4000","9.9201","0.4156"
"102.4800","9.9268","0.4160"
"102.5600","9.9335","0.4160"
"102.6400","9.9403","0.4154"
"102.7200","9.9469","0.4152"
"102.8000","9.9535","0.4158"
"102.8800","9.9602","0.4151"
"102.9600","9.9668","0.4153"
"103.0400","9.9735","0.4153"
"103.1200","9.9801","0.4153"
"103.2000","9.9869","0.4153"
"103.2800","9.9936","0.4150"
"103.3600","10.0003","0.4150"
"103.4400","10.0069","0.4146"
"103.5200","10.0136","0.4151"
"103.6000","10.0203","0.4151"
"103.6800","10.0268","0.4148"
"103.7600","10.0334","0.4148"
"103.8400","10.0401","0.4149"
"103.9200","10.0470","0.4145"
"104.0000","10.0535","0.4150"
"104.0800","10.0602","0.4145"
"104.1600","10.0669","0.4147"
"104.2400","10.0735","0.4135"
"104.3200","10.0801","0.4128"
"104.4000","10.0868","0.4127"
"104.4800","10.0936","0.4121"
"104.5600","10.1002","0.4125"
"104.6400","10.1069","0.4120"
"104.7200","10.1134","0.4116"
"104.8000","10.1202","0.4117"
"104.8800","10.1268","0.4117"
"104.9600","10.1334","0.4113"
"105.0400","10.1401","0.4115"
"105.1200","10.1468","0.4111"
"105.2000","10.1536","0.4115"
"105.2800","10.1601","0.4110"
"105.3600","10.1668","0.4110"
"105.4400","10.1736","0.4109"
"105.5200","10.1802","0.4109"
"105.6000","10.1868","0.4111"
"105.6800","10.1934","0.4108"
"105.7600","10.2003","0.4099"
"105.8400","10.2069","0.4088"
"105.9200","10.2136","0.4081"
"106.0000","10.2202","0.4077"
"106.0800","10.2269","0.4077"
"106.1600","10.2336","0.4074"
"106.2400","10.2401","0.4067"
"106.3200","10.2469","0.4064"
"106.4000","10.2535","0.4059"
"106.4800","10.2603","0.4058"
"106.5600","10.2668","0.4055"
"106.6400","10.2736","0.4055"
"106.7200","10.2803","0.4048"
"106.8000","10.2869","0.4047"
"106.8800","10.2935","0.4045"
"106.9600","10.3000","0.4047"
"107.0400","10.3068","0.4043"
"107.1200","10.3134","0.4041"
"107.2000","10.3203","0.4040"
"107.2800","10.3269","0.4038"
"107.3600","10.3336","0.4039"
"107.4400","10.3402","0.4042"
"107.5200","10.3468","0.4036"
"107.6000","10.3534","0.4036"
"107.6800","10.3601","0.4036"
"107.7600","10.3669","0.4035"
"107.8400","10.3734","0.4030"
"107.9200","10.3802","0.4031"
"108.0000","10.3869","0.4030"
"108.0800","10.3935","0.4031"
"108.1600","10.4001","0.4028"
"108.2400","10.4067","0.4031"
"108.3200","10.4135","0.4025"
"108.4000","10.4201","0.4026"
"108.4800","10.4268","0.4028"
"108.5600","10.4335","0.4025"
"108.6400","10.4403","0.4027"
"108.7200","10.4469","0.4026"
"108.8000","10.4535","0.4026"
"108.8800","10.4602","0.4023"
"108.9600","10.4668","0.4025"
"109.0400","10.4735","0.4025"
"109.1200","10.4801","0.4018"
"109.2000","10.4869","0.4007"
"109.2800","10.4936","0.4008"
"109.3600","10.5002","0.4002"
"109.4400","10.5069","0.3995"
"109.5200","10.5135","0.3988"
"109.6000","10.5202","0.3978"
"109.6800","10.5267","0.3972"
"109.7600","10.5335","0.3972"
"109.8400","10.5401","0.3967"
"109.9200","10.5469","0.3960"
"110.0000","10.5534","0.3961"
"110.0800","10.5602","0.3958"
"110.1600","10.5669","0.3944"
"110.2400","10.5735","0.3939"
"110.3200","10.5801","0.3926"
"110.4000","10.5868","0.3922"
"110.4800","10.5936","0.3916"
"110.5600","10.6002","0.3915"
"110.6400","10.6068","0.3905"
"110.7200","10.6134","0.3894"
"110.8000","10.6202","0.3892"
"110.8800","10.6269","0.3881"
"110.9600","10.6334","0.3876"
"111.0400","10.6402","0.3873"
"111.1200","10.6469","0.3864"
"111.2000","10.6536","0.3858"
"111.2800","10.6601","0.3850"
"111.3600","10.6668","0.3846"
"111.4400","10.6736","0.3839"
"111.5200","10.6801","0.3833"
"111.6000","10.6868","0.3827"
"111.6800","10.6934","0.3825"
"111.7600","10.7002","0.3822"
"111.8400","10.7068","0.3814"
"111.9200","10.7136","0.3804"
"112.0000","10.7202","0.3799"
"112.0800","10.7269","0.3795"
"112.1600","10.7336","0.3788"
"112.2400","10.7401","0.3774"
"112.3200","10.7468","0.3763"
"112.4000","10.7535","0.3741"
"112.4800","10.7603","0.3711"
"112.5600","10.7668","0.3683"
"112.6400","10.7736","0.3640"
"112.7200","10.7802","0.3531"
"112.8000","10.7869","0.3224"
"112.8800","10.7934","0.3014"
"112.9600","10.8001","0.2716"
"113.0400","10.8069","0.1810"
"113.1200","10.8135","0.1629"
"113.2000","10.8202","0.1510"
"113.2800","10.8268","0.1278"
"113.3600","10.8336","0.1221"
"113.4400","10.8401","0.1192"
"113.5200","10.8468","0.1172"
"113.6000","10.8534","0.1160"
"113.6800","10.8601","0.1144"
"113.7600","10.8669","0.1132"
"113.8400","10.8734","0.1123"
"113.9200","10.8803","0.1116"
"113.9260","10.8807","0.1115"